rt,stimulus,trial_type,trial_index,plugin_version,time_elapsed,subject_id,study_id,session_id,id,subj,source_file,natural,mobile,volition,potent,sentient,instigation,qualpersist
10080,"
        <div style=""font-size: 16px; text-align: center; margin-top: 25px; margin-right: 100px; margin-left: 100px; margin-bottom: 25px;"">
            <img src=""./image/SUSig_2color_Stree_Left.png"" alt=""Stanford Logo"" style=""max-width: 500px; margin-bottom: 20px;"">
            <h3>DESCRIPTION</h3>
            <p>You are invited to participate in a research study on language perception. Its purpose is to help us understand what factors influence sentence construction. In the study, you will read a list of sentences and use rating scales to experess your opinions about the events described by each sentence. Following this, you will have the opportunity to complete an optional demographic survey. Participation in this research is voluntary, and you are free to withdraw your consent at any time.</p>
            <h3>TIME INVOLVEMENT</h3> 
            <p>Your participation will take approximately 15 minutes.</p>
            <h3>PAYMENT</h3> 
            <p>You will be paid at the posted rate.</p>
            <h3>PRIVACY AND CONFIDENTIALITY</h3> 
            <p>The risks associated with this study are minimal. This judgment is based on a large body of experience with the same or similar procedures with people of similar ages, sex, origins, etc. Study data will be stored securely, in compliance with Stanford University standards, minimizing the risk of confidentiality breach. Your individual privacy will be maintained during the research and in all published and written data resulting from the study.</p>
            <h3>CONTACT INFORMATION</h3>
            <p>If you have any questions, concerns or complaints about this research study, its procedures, risks and benefits, you should contact the Protocol Director, Grace Brown, at (616) 498-8188 or grcbrown@stanford.edu. If you are not satisfied with how this study is being conducted, or if you have any concerns, complaints, or general questions about the research or your rights as a participant, please contact the Stanford Institutional Review Board (IRB) to speak to someone independent of the research team at (650) 723-2480 or toll free at 1-866-680-2906, or email at irbnonmed@stanford.edu.</p> 
            <p>Please save or print a copy of this page for your records</p>
            <p>If you agree to participate in this research, please click the 'Continue' button.</p>
        </div>
    ",html-button-response,0,2.1.0,10087,65f0a43ed1d258cc4c97805d,697959de24a1c569e8bf5a40,697a2b0d19356dae60f7d3b0,,,1ok7rx9pae.csv,,,,,,,
52769,"
    <div class=""gen_ins""; style=""font-size: 16px; text-align: center; margin-top: 25px; margin-right: 100px; margin-left: 100px; margin-bottom: 25px;"">
        <p>During this study, you will see a series of sentences, presented one-by-one. Each sentence will describe an event. It will be followed by 7 statements. You must indicate on a scale how much you agree with each statement. Click along the rating scales to respond. There are a total of 36 trials, and this portion of the study is expected to take 15 minutes.</p>
        <p>After you complete this task, you will have the opportunity to complete an optional survey.</p>
        <p>This is a pilot. There may be bugs. </p>
        <p>If you understand the instructions and are ready to begin, click ‘Continue’.</p>
    </div>
    ",html-button-response,1,2.1.0,62858,65f0a43ed1d258cc4c97805d,697959de24a1c569e8bf5a40,697a2b0d19356dae60f7d3b0,,,1ok7rx9pae.csv,,,,,,,
46135,,survey-html-form,2,2.1.0,108995,65f0a43ed1d258cc4c97805d,697959de24a1c569e8bf5a40,697a2b0d19356dae60f7d3b0,14.0,human,1ok7rx9pae.csv,7,6,3,7,4,6,4
46146,,survey-html-form,3,2.1.0,155144,65f0a43ed1d258cc4c97805d,697959de24a1c569e8bf5a40,697a2b0d19356dae60f7d3b0,7.0,instrument,1ok7rx9pae.csv,2,6,1,1,1,4,6
19214,,survey-html-form,4,2.1.0,174361,65f0a43ed1d258cc4c97805d,697959de24a1c569e8bf5a40,697a2b0d19356dae60f7d3b0,16.0,human,1ok7rx9pae.csv,7,7,2,7,6,7,4
29005,,survey-html-form,5,2.1.0,203368,65f0a43ed1d258cc4c97805d,697959de24a1c569e8bf5a40,697a2b0d19356dae60f7d3b0,5.0,instrument,1ok7rx9pae.csv,5,5,1,1,1,5,4
13509,,survey-html-form,6,2.1.0,216879,65f0a43ed1d258cc4c97805d,697959de24a1c569e8bf5a40,697a2b0d19356dae60f7d3b0,11.0,instrument,1ok7rx9pae.csv,7,7,1,1,1,5,4
34900,,survey-html-form,7,2.1.0,251781,65f0a43ed1d258cc4c97805d,697959de24a1c569e8bf5a40,697a2b0d19356dae60f7d3b0,2.0,human,1ok7rx9pae.csv,6,7,4,6,6,6,3
28224,,survey-html-form,8,2.1.0,280007,65f0a43ed1d258cc4c97805d,697959de24a1c569e8bf5a40,697a2b0d19356dae60f7d3b0,13.0,instrument,1ok7rx9pae.csv,7,7,5,1,1,6,4
16766,,survey-html-form,9,2.1.0,296775,65f0a43ed1d258cc4c97805d,697959de24a1c569e8bf5a40,697a2b0d19356dae60f7d3b0,19.0,instrument,1ok7rx9pae.csv,7,7,4,1,1,5,4
17768,,survey-html-form,10,2.1.0,314545,65f0a43ed1d258cc4c97805d,697959de24a1c569e8bf5a40,697a2b0d19356dae60f7d3b0,18.0,human,1ok7rx9pae.csv,6,7,2,6,6,6,4
61585,,survey-html-form,11,2.1.0,376132,65f0a43ed1d258cc4c97805d,697959de24a1c569e8bf5a40,697a2b0d19356dae60f7d3b0,9.0,instrument,1ok7rx9pae.csv,6,6,1,1,1,6,4
17528,,survey-html-form,12,2.1.0,393663,65f0a43ed1d258cc4c97805d,697959de24a1c569e8bf5a40,697a2b0d19356dae60f7d3b0,12.0,human,1ok7rx9pae.csv,5,6,1,7,7,7,3
17475,,survey-html-form,13,2.1.0,411140,65f0a43ed1d258cc4c97805d,697959de24a1c569e8bf5a40,697a2b0d19356dae60f7d3b0,3.0,instrument,1ok7rx9pae.csv,4,6,5,1,1,5,5
17787,,survey-html-form,14,2.1.0,428929,65f0a43ed1d258cc4c97805d,697959de24a1c569e8bf5a40,697a2b0d19356dae60f7d3b0,26.0,human,1ok7rx9pae.csv,6,6,4,5,6,6,4
18919,,survey-html-form,15,2.1.0,447850,65f0a43ed1d258cc4c97805d,697959de24a1c569e8bf5a40,697a2b0d19356dae60f7d3b0,8.0,human,1ok7rx9pae.csv,6,6,4,5,6,6,4
112999,,survey-html-form,16,2.1.0,560851,65f0a43ed1d258cc4c97805d,697959de24a1c569e8bf5a40,697a2b0d19356dae60f7d3b0,23.0,instrument,1ok7rx9pae.csv,6,3,6,7,1,7,2
18469,,survey-html-form,17,2.1.0,579321,65f0a43ed1d258cc4c97805d,697959de24a1c569e8bf5a40,697a2b0d19356dae60f7d3b0,10.0,human,1ok7rx9pae.csv,6,6,5,7,6,6,2
20196,,survey-html-form,18,2.1.0,599610,65f0a43ed1d258cc4c97805d,697959de24a1c569e8bf5a40,697a2b0d19356dae60f7d3b0,20.0,human,1ok7rx9pae.csv,4,5,5,5,5,6,4
21475,,survey-html-form,19,2.1.0,621087,65f0a43ed1d258cc4c97805d,697959de24a1c569e8bf5a40,697a2b0d19356dae60f7d3b0,24.0,human,1ok7rx9pae.csv,5,5,5,3,5,4,4
18723,,survey-html-form,20,2.1.0,639813,65f0a43ed1d258cc4c97805d,697959de24a1c569e8bf5a40,697a2b0d19356dae60f7d3b0,21.0,instrument,1ok7rx9pae.csv,5,5,5,5,1,4,4
16184,,survey-html-form,21,2.1.0,655999,65f0a43ed1d258cc4c97805d,697959de24a1c569e8bf5a40,697a2b0d19356dae60f7d3b0,15.0,instrument,1ok7rx9pae.csv,3,5,6,4,1,4,4
17073,,survey-html-form,22,2.1.0,673074,65f0a43ed1d258cc4c97805d,697959de24a1c569e8bf5a40,697a2b0d19356dae60f7d3b0,25.0,instrument,1ok7rx9pae.csv,4,5,6,5,1,5,2
16403,,survey-html-form,23,2.1.0,689479,65f0a43ed1d258cc4c97805d,697959de24a1c569e8bf5a40,697a2b0d19356dae60f7d3b0,17.0,instrument,1ok7rx9pae.csv,5,6,5,4,1,5,4
14245,,survey-html-form,24,2.1.0,703727,65f0a43ed1d258cc4c97805d,697959de24a1c569e8bf5a40,697a2b0d19356dae60f7d3b0,22.0,human,1ok7rx9pae.csv,5,6,4,5,6,5,4
16216,,survey-html-form,25,2.1.0,719945,65f0a43ed1d258cc4c97805d,697959de24a1c569e8bf5a40,697a2b0d19356dae60f7d3b0,6.0,human,1ok7rx9pae.csv,4,6,5,6,6,5,4
16302,,survey-html-form,26,2.1.0,736250,65f0a43ed1d258cc4c97805d,697959de24a1c569e8bf5a40,697a2b0d19356dae60f7d3b0,4.0,human,1ok7rx9pae.csv,4,6,5,6,6,6,4
16895,,survey-html-form,27,2.1.0,753147,65f0a43ed1d258cc4c97805d,697959de24a1c569e8bf5a40,697a2b0d19356dae60f7d3b0,1.0,instrument,1ok7rx9pae.csv,4,5,5,5,1,5,4
361168,"
    <div class=""gen_ins""; style=""font-size: 16px; text-align: center; margin-top: 25px; margin-right: 100px; margin-left: 100px; margin-bottom: 25px;"">
        <p>You have completed the rating trials. Next, you will be directed to an optional survey.</p>
        <p>Please answer any of the questions on the next page that you are comfortable answering. After seeing the survey, you will be able to end the experiment.</p>
        <p>Click ‘Continue’ to proceed to the survey.</p>
    </div>
    ",html-button-response,28,2.1.0,1114318,65f0a43ed1d258cc4c97805d,697959de24a1c569e8bf5a40,697a2b0d19356dae60f7d3b0,,,1ok7rx9pae.csv,,,,,,,
69943,,survey,29,3.0.0,1184355,65f0a43ed1d258cc4c97805d,697959de24a1c569e8bf5a40,697a2b0d19356dae60f7d3b0,,,1ok7rx9pae.csv,,,,,,,
2214,"
        <div style=""font-size: 16px; text-align: center; margin-top: 25px; margin-right: 100px; margin-left: 100px; margin-bottom: 25px;"">
            <img src=""./image/SUSig_2color_Stree_Left.png"" alt=""Stanford Logo"" style=""max-width: 500px; margin-bottom: 20px;"">
            <h3>DESCRIPTION</h3>
            <p>You are invited to participate in a research study on language perception. Its purpose is to help us understand what factors influence sentence construction. In the study, you will read a list of sentences and use rating scales to experess your opinions about the events described by each sentence. Following this, you will have the opportunity to complete an optional demographic survey. Participation in this research is voluntary, and you are free to withdraw your consent at any time.</p>
            <h3>TIME INVOLVEMENT</h3> 
            <p>Your participation will take approximately 15 minutes.</p>
            <h3>PAYMENT</h3> 
            <p>You will be paid at the posted rate.</p>
            <h3>PRIVACY AND CONFIDENTIALITY</h3> 
            <p>The risks associated with this study are minimal. This judgment is based on a large body of experience with the same or similar procedures with people of similar ages, sex, origins, etc. Study data will be stored securely, in compliance with Stanford University standards, minimizing the risk of confidentiality breach. Your individual privacy will be maintained during the research and in all published and written data resulting from the study.</p>
            <h3>CONTACT INFORMATION</h3>
            <p>If you have any questions, concerns or complaints about this research study, its procedures, risks and benefits, you should contact the Protocol Director, Grace Brown, at (616) 498-8188 or grcbrown@stanford.edu. If you are not satisfied with how this study is being conducted, or if you have any concerns, complaints, or general questions about the research or your rights as a participant, please contact the Stanford Institutional Review Board (IRB) to speak to someone independent of the research team at (650) 723-2480 or toll free at 1-866-680-2906, or email at irbnonmed@stanford.edu.</p> 
            <p>Please save or print a copy of this page for your records</p>
            <p>If you agree to participate in this research, please click the 'Continue' button.</p>
        </div>
    ",html-button-response,0,2.1.0,2224,67d5d7068c0132f8de37783d,697959de24a1c569e8bf5a40,697a27865081e6dea145a291,,,21gfga2rkf.csv,,,,,,,
12776,"
    <div class=""gen_ins""; style=""font-size: 16px; text-align: center; margin-top: 25px; margin-right: 100px; margin-left: 100px; margin-bottom: 25px;"">
        <p>During this study, you will see a series of sentences, presented one-by-one. Each sentence will describe an event. It will be followed by 7 statements. You must indicate on a scale how much you agree with each statement. Click along the rating scales to respond. There are a total of 36 trials, and this portion of the study is expected to take 15 minutes.</p>
        <p>After you complete this task, you will have the opportunity to complete an optional survey.</p>
        <p>This is a pilot. There may be bugs. </p>
        <p>If you understand the instructions and are ready to begin, click ‘Continue’.</p>
    </div>
    ",html-button-response,1,2.1.0,15003,67d5d7068c0132f8de37783d,697959de24a1c569e8bf5a40,697a27865081e6dea145a291,,,21gfga2rkf.csv,,,,,,,
34246,,survey-html-form,2,2.1.0,49252,67d5d7068c0132f8de37783d,697959de24a1c569e8bf5a40,697a27865081e6dea145a291,10.0,instrument,21gfga2rkf.csv,7,6,1,1,1,5,6
27084,,survey-html-form,3,2.1.0,76337,67d5d7068c0132f8de37783d,697959de24a1c569e8bf5a40,697a27865081e6dea145a291,18.0,instrument,21gfga2rkf.csv,7,6,1,1,1,5,6
27815,,survey-html-form,4,2.1.0,104154,67d5d7068c0132f8de37783d,697959de24a1c569e8bf5a40,697a27865081e6dea145a291,6.0,instrument,21gfga2rkf.csv,7,6,1,1,1,5,6
43054,,survey-html-form,5,2.1.0,147210,67d5d7068c0132f8de37783d,697959de24a1c569e8bf5a40,697a27865081e6dea145a291,19.0,human,21gfga2rkf.csv,3,6,6,6,7,7,4
28158,,survey-html-form,6,2.1.0,175371,67d5d7068c0132f8de37783d,697959de24a1c569e8bf5a40,697a27865081e6dea145a291,2.0,instrument,21gfga2rkf.csv,7,6,1,1,1,5,6
25724,,survey-html-form,7,2.1.0,201097,67d5d7068c0132f8de37783d,697959de24a1c569e8bf5a40,697a27865081e6dea145a291,17.0,human,21gfga2rkf.csv,7,6,6,6,7,7,4
23606,,survey-html-form,8,2.1.0,224706,67d5d7068c0132f8de37783d,697959de24a1c569e8bf5a40,697a27865081e6dea145a291,8.0,instrument,21gfga2rkf.csv,7,6,1,1,1,5,6
26901,,survey-html-form,9,2.1.0,251609,67d5d7068c0132f8de37783d,697959de24a1c569e8bf5a40,697a27865081e6dea145a291,22.0,instrument,21gfga2rkf.csv,7,6,2,2,1,5,6
90007,,survey-html-form,10,2.1.0,341617,67d5d7068c0132f8de37783d,697959de24a1c569e8bf5a40,697a27865081e6dea145a291,11.0,human,21gfga2rkf.csv,7,6,6,6,7,7,4
22774,,survey-html-form,11,2.1.0,364393,67d5d7068c0132f8de37783d,697959de24a1c569e8bf5a40,697a27865081e6dea145a291,25.0,human,21gfga2rkf.csv,7,6,6,6,7,7,4
26151,,survey-html-form,12,2.1.0,390546,67d5d7068c0132f8de37783d,697959de24a1c569e8bf5a40,697a27865081e6dea145a291,21.0,human,21gfga2rkf.csv,7,6,6,6,7,7,4
57797,,survey-html-form,13,2.1.0,448346,67d5d7068c0132f8de37783d,697959de24a1c569e8bf5a40,697a27865081e6dea145a291,23.0,human,21gfga2rkf.csv,6,5,6,5,7,6,3
43270,,survey-html-form,14,2.1.0,491617,67d5d7068c0132f8de37783d,697959de24a1c569e8bf5a40,697a27865081e6dea145a291,24.0,instrument,21gfga2rkf.csv,7,3,5,2,1,6,3
46430,,survey-html-form,15,2.1.0,538049,67d5d7068c0132f8de37783d,697959de24a1c569e8bf5a40,697a27865081e6dea145a291,14.0,instrument,21gfga2rkf.csv,6,5,1,1,1,6,3
68935,,survey-html-form,16,2.1.0,606985,67d5d7068c0132f8de37783d,697959de24a1c569e8bf5a40,697a27865081e6dea145a291,26.0,instrument,21gfga2rkf.csv,7,6,3,2,1,6,3
23439,,survey-html-form,17,2.1.0,630425,67d5d7068c0132f8de37783d,697959de24a1c569e8bf5a40,697a27865081e6dea145a291,9.0,human,21gfga2rkf.csv,6,6,6,6,7,6,3
29695,,survey-html-form,18,2.1.0,660121,67d5d7068c0132f8de37783d,697959de24a1c569e8bf5a40,697a27865081e6dea145a291,1.0,human,21gfga2rkf.csv,6,6,6,5,7,6,3
26654,,survey-html-form,19,2.1.0,686777,67d5d7068c0132f8de37783d,697959de24a1c569e8bf5a40,697a27865081e6dea145a291,5.0,human,21gfga2rkf.csv,6,6,6,6,7,7,3
25807,,survey-html-form,20,2.1.0,712585,67d5d7068c0132f8de37783d,697959de24a1c569e8bf5a40,697a27865081e6dea145a291,13.0,human,21gfga2rkf.csv,7,6,6,6,7,7,3
26887,,survey-html-form,21,2.1.0,739473,67d5d7068c0132f8de37783d,697959de24a1c569e8bf5a40,697a27865081e6dea145a291,4.0,instrument,21gfga2rkf.csv,6,6,1,1,1,5,6
22935,,survey-html-form,22,2.1.0,762410,67d5d7068c0132f8de37783d,697959de24a1c569e8bf5a40,697a27865081e6dea145a291,16.0,instrument,21gfga2rkf.csv,6,5,1,1,1,5,6
27613,,survey-html-form,23,2.1.0,790025,67d5d7068c0132f8de37783d,697959de24a1c569e8bf5a40,697a27865081e6dea145a291,7.0,human,21gfga2rkf.csv,7,6,6,6,7,7,3
32167,,survey-html-form,24,2.1.0,822193,67d5d7068c0132f8de37783d,697959de24a1c569e8bf5a40,697a27865081e6dea145a291,20.0,instrument,21gfga2rkf.csv,6,3,2,2,1,6,3
28662,,survey-html-form,25,2.1.0,850856,67d5d7068c0132f8de37783d,697959de24a1c569e8bf5a40,697a27865081e6dea145a291,15.0,human,21gfga2rkf.csv,7,6,6,6,7,7,3
24288,,survey-html-form,26,2.1.0,875145,67d5d7068c0132f8de37783d,697959de24a1c569e8bf5a40,697a27865081e6dea145a291,3.0,human,21gfga2rkf.csv,7,6,6,6,7,7,3
33150,,survey-html-form,27,2.1.0,908297,67d5d7068c0132f8de37783d,697959de24a1c569e8bf5a40,697a27865081e6dea145a291,12.0,instrument,21gfga2rkf.csv,5,5,1,1,1,5,3
3845,"
    <div class=""gen_ins""; style=""font-size: 16px; text-align: center; margin-top: 25px; margin-right: 100px; margin-left: 100px; margin-bottom: 25px;"">
        <p>You have completed the rating trials. Next, you will be directed to an optional survey.</p>
        <p>Please answer any of the questions on the next page that you are comfortable answering. After seeing the survey, you will be able to end the experiment.</p>
        <p>Click ‘Continue’ to proceed to the survey.</p>
    </div>
    ",html-button-response,28,2.1.0,912144,67d5d7068c0132f8de37783d,697959de24a1c569e8bf5a40,697a27865081e6dea145a291,,,21gfga2rkf.csv,,,,,,,
90739,,survey,29,3.0.0,1003037,67d5d7068c0132f8de37783d,697959de24a1c569e8bf5a40,697a27865081e6dea145a291,,,21gfga2rkf.csv,,,,,,,
33771,"
        <div style=""font-size: 16px; text-align: center; margin-top: 25px; margin-right: 100px; margin-left: 100px; margin-bottom: 25px;"">
            <img src=""./image/SUSig_2color_Stree_Left.png"" alt=""Stanford Logo"" style=""max-width: 500px; margin-bottom: 20px;"">
            <h3>DESCRIPTION</h3>
            <p>You are invited to participate in a research study on language perception. Its purpose is to help us understand what factors influence sentence construction. In the study, you will read a list of sentences and use rating scales to experess your opinions about the events described by each sentence. Following this, you will have the opportunity to complete an optional demographic survey. Participation in this research is voluntary, and you are free to withdraw your consent at any time.</p>
            <h3>TIME INVOLVEMENT</h3> 
            <p>Your participation will take approximately 15 minutes.</p>
            <h3>PAYMENT</h3> 
            <p>You will be paid at the posted rate.</p>
            <h3>PRIVACY AND CONFIDENTIALITY</h3> 
            <p>The risks associated with this study are minimal. This judgment is based on a large body of experience with the same or similar procedures with people of similar ages, sex, origins, etc. Study data will be stored securely, in compliance with Stanford University standards, minimizing the risk of confidentiality breach. Your individual privacy will be maintained during the research and in all published and written data resulting from the study.</p>
            <h3>CONTACT INFORMATION</h3>
            <p>If you have any questions, concerns or complaints about this research study, its procedures, risks and benefits, you should contact the Protocol Director, Grace Brown, at (616) 498-8188 or grcbrown@stanford.edu. If you are not satisfied with how this study is being conducted, or if you have any concerns, complaints, or general questions about the research or your rights as a participant, please contact the Stanford Institutional Review Board (IRB) to speak to someone independent of the research team at (650) 723-2480 or toll free at 1-866-680-2906, or email at irbnonmed@stanford.edu.</p> 
            <p>Please save or print a copy of this page for your records</p>
            <p>If you agree to participate in this research, please click the 'Continue' button.</p>
        </div>
    ",html-button-response,0,2.1.0,33788,5bf368846edd7200017136c7,697959de24a1c569e8bf5a40,697a2668ac9fb552950ca408,,,6sa4ulxtub.csv,,,,,,,
14796,"
    <div class=""gen_ins""; style=""font-size: 16px; text-align: center; margin-top: 25px; margin-right: 100px; margin-left: 100px; margin-bottom: 25px;"">
        <p>During this study, you will see a series of sentences, presented one-by-one. Each sentence will describe an event. It will be followed by 7 statements. You must indicate on a scale how much you agree with each statement. Click along the rating scales to respond. There are a total of 36 trials, and this portion of the study is expected to take 15 minutes.</p>
        <p>After you complete this task, you will have the opportunity to complete an optional survey.</p>
        <p>This is a pilot. There may be bugs. </p>
        <p>If you understand the instructions and are ready to begin, click ‘Continue’.</p>
    </div>
    ",html-button-response,1,2.1.0,48586,5bf368846edd7200017136c7,697959de24a1c569e8bf5a40,697a2668ac9fb552950ca408,,,6sa4ulxtub.csv,,,,,,,
35369,,survey-html-form,2,2.1.0,83958,5bf368846edd7200017136c7,697959de24a1c569e8bf5a40,697a2668ac9fb552950ca408,17.0,human,6sa4ulxtub.csv,7,7,7,7,7,7,1
23758,,survey-html-form,3,2.1.0,107717,5bf368846edd7200017136c7,697959de24a1c569e8bf5a40,697a2668ac9fb552950ca408,12.0,instrument,6sa4ulxtub.csv,1,7,1,1,1,3,7
19237,,survey-html-form,4,2.1.0,126956,5bf368846edd7200017136c7,697959de24a1c569e8bf5a40,697a2668ac9fb552950ca408,14.0,instrument,6sa4ulxtub.csv,1,7,1,1,1,3,7
17207,,survey-html-form,5,2.1.0,144165,5bf368846edd7200017136c7,697959de24a1c569e8bf5a40,697a2668ac9fb552950ca408,4.0,instrument,6sa4ulxtub.csv,1,7,1,1,1,3,7
14693,,survey-html-form,6,2.1.0,158860,5bf368846edd7200017136c7,697959de24a1c569e8bf5a40,697a2668ac9fb552950ca408,2.0,instrument,6sa4ulxtub.csv,1,7,1,1,1,3,7
20055,,survey-html-form,7,2.1.0,178917,5bf368846edd7200017136c7,697959de24a1c569e8bf5a40,697a2668ac9fb552950ca408,9.0,human,6sa4ulxtub.csv,7,7,7,7,7,7,1
16398,,survey-html-form,8,2.1.0,195317,5bf368846edd7200017136c7,697959de24a1c569e8bf5a40,697a2668ac9fb552950ca408,10.0,instrument,6sa4ulxtub.csv,1,7,1,1,1,3,7
17670,,survey-html-form,9,2.1.0,212989,5bf368846edd7200017136c7,697959de24a1c569e8bf5a40,697a2668ac9fb552950ca408,18.0,instrument,6sa4ulxtub.csv,5,7,1,1,1,3,7
15053,,survey-html-form,10,2.1.0,228044,5bf368846edd7200017136c7,697959de24a1c569e8bf5a40,697a2668ac9fb552950ca408,8.0,instrument,6sa4ulxtub.csv,1,7,1,1,1,3,3
16862,,survey-html-form,11,2.1.0,244908,5bf368846edd7200017136c7,697959de24a1c569e8bf5a40,697a2668ac9fb552950ca408,1.0,human,6sa4ulxtub.csv,7,7,7,7,7,7,7
14199,,survey-html-form,12,2.1.0,259109,5bf368846edd7200017136c7,697959de24a1c569e8bf5a40,697a2668ac9fb552950ca408,13.0,human,6sa4ulxtub.csv,7,7,7,7,7,7,7
15846,,survey-html-form,13,2.1.0,274957,5bf368846edd7200017136c7,697959de24a1c569e8bf5a40,697a2668ac9fb552950ca408,6.0,instrument,6sa4ulxtub.csv,1,7,1,1,1,3,7
12054,,survey-html-form,14,2.1.0,287013,5bf368846edd7200017136c7,697959de24a1c569e8bf5a40,697a2668ac9fb552950ca408,3.0,human,6sa4ulxtub.csv,7,7,7,7,7,7,7
26597,,survey-html-form,15,2.1.0,313612,5bf368846edd7200017136c7,697959de24a1c569e8bf5a40,697a2668ac9fb552950ca408,24.0,instrument,6sa4ulxtub.csv,5,5,1,1,1,3,7
15142,,survey-html-form,16,2.1.0,328755,5bf368846edd7200017136c7,697959de24a1c569e8bf5a40,697a2668ac9fb552950ca408,7.0,human,6sa4ulxtub.csv,7,7,7,7,7,7,7
13839,,survey-html-form,17,2.1.0,342596,5bf368846edd7200017136c7,697959de24a1c569e8bf5a40,697a2668ac9fb552950ca408,15.0,human,6sa4ulxtub.csv,7,7,7,7,7,7,7
12078,,survey-html-form,18,2.1.0,354676,5bf368846edd7200017136c7,697959de24a1c569e8bf5a40,697a2668ac9fb552950ca408,16.0,instrument,6sa4ulxtub.csv,1,7,1,1,1,3,7
19006,,survey-html-form,19,2.1.0,373683,5bf368846edd7200017136c7,697959de24a1c569e8bf5a40,697a2668ac9fb552950ca408,21.0,human,6sa4ulxtub.csv,7,7,7,7,7,7,7
14751,,survey-html-form,20,2.1.0,388435,5bf368846edd7200017136c7,697959de24a1c569e8bf5a40,697a2668ac9fb552950ca408,5.0,human,6sa4ulxtub.csv,7,7,7,7,7,7,7
17102,,survey-html-form,21,2.1.0,405539,5bf368846edd7200017136c7,697959de24a1c569e8bf5a40,697a2668ac9fb552950ca408,22.0,instrument,6sa4ulxtub.csv,1,7,1,1,1,3,7
11438,,survey-html-form,22,2.1.0,416979,5bf368846edd7200017136c7,697959de24a1c569e8bf5a40,697a2668ac9fb552950ca408,25.0,human,6sa4ulxtub.csv,7,7,7,7,7,7,7
44287,,survey-html-form,23,2.1.0,461268,5bf368846edd7200017136c7,697959de24a1c569e8bf5a40,697a2668ac9fb552950ca408,19.0,human,6sa4ulxtub.csv,7,7,7,7,7,7,7
22375,,survey-html-form,24,2.1.0,483645,5bf368846edd7200017136c7,697959de24a1c569e8bf5a40,697a2668ac9fb552950ca408,26.0,instrument,6sa4ulxtub.csv,1,7,1,1,1,3,7
28140,,survey-html-form,25,2.1.0,511787,5bf368846edd7200017136c7,697959de24a1c569e8bf5a40,697a2668ac9fb552950ca408,20.0,instrument,6sa4ulxtub.csv,5,5,1,1,1,3,7
20454,,survey-html-form,26,2.1.0,532243,5bf368846edd7200017136c7,697959de24a1c569e8bf5a40,697a2668ac9fb552950ca408,23.0,human,6sa4ulxtub.csv,7,7,7,7,7,7,7
13695,,survey-html-form,27,2.1.0,545940,5bf368846edd7200017136c7,697959de24a1c569e8bf5a40,697a2668ac9fb552950ca408,11.0,human,6sa4ulxtub.csv,7,7,7,7,7,7,7
5011,"
    <div class=""gen_ins""; style=""font-size: 16px; text-align: center; margin-top: 25px; margin-right: 100px; margin-left: 100px; margin-bottom: 25px;"">
        <p>You have completed the rating trials. Next, you will be directed to an optional survey.</p>
        <p>Please answer any of the questions on the next page that you are comfortable answering. After seeing the survey, you will be able to end the experiment.</p>
        <p>Click ‘Continue’ to proceed to the survey.</p>
    </div>
    ",html-button-response,28,2.1.0,550953,5bf368846edd7200017136c7,697959de24a1c569e8bf5a40,697a2668ac9fb552950ca408,,,6sa4ulxtub.csv,,,,,,,
63795,,survey,29,3.0.0,614917,5bf368846edd7200017136c7,697959de24a1c569e8bf5a40,697a2668ac9fb552950ca408,,,6sa4ulxtub.csv,,,,,,,
9632,"
        <div style=""font-size: 16px; text-align: center; margin-top: 25px; margin-right: 100px; margin-left: 100px; margin-bottom: 25px;"">
            <img src=""./image/SUSig_2color_Stree_Left.png"" alt=""Stanford Logo"" style=""max-width: 500px; margin-bottom: 20px;"">
            <h3>DESCRIPTION</h3>
            <p>You are invited to participate in a research study on language perception. Its purpose is to help us understand what factors influence sentence construction. In the study, you will read a list of sentences and use rating scales to experess your opinions about the events described by each sentence. Following this, you will have the opportunity to complete an optional demographic survey. Participation in this research is voluntary, and you are free to withdraw your consent at any time.</p>
            <h3>TIME INVOLVEMENT</h3> 
            <p>Your participation will take approximately 15 minutes.</p>
            <h3>PAYMENT</h3> 
            <p>You will be paid at the posted rate.</p>
            <h3>PRIVACY AND CONFIDENTIALITY</h3> 
            <p>The risks associated with this study are minimal. This judgment is based on a large body of experience with the same or similar procedures with people of similar ages, sex, origins, etc. Study data will be stored securely, in compliance with Stanford University standards, minimizing the risk of confidentiality breach. Your individual privacy will be maintained during the research and in all published and written data resulting from the study.</p>
            <h3>CONTACT INFORMATION</h3>
            <p>If you have any questions, concerns or complaints about this research study, its procedures, risks and benefits, you should contact the Protocol Director, Grace Brown, at (616) 498-8188 or grcbrown@stanford.edu. If you are not satisfied with how this study is being conducted, or if you have any concerns, complaints, or general questions about the research or your rights as a participant, please contact the Stanford Institutional Review Board (IRB) to speak to someone independent of the research team at (650) 723-2480 or toll free at 1-866-680-2906, or email at irbnonmed@stanford.edu.</p> 
            <p>Please save or print a copy of this page for your records</p>
            <p>If you agree to participate in this research, please click the 'Continue' button.</p>
        </div>
    ",html-button-response,0,2.1.0,9657,6942d96507ca4dc6182472ed,697959de24a1c569e8bf5a40,697a25316860312ff9d7854c,,,aqgobzzkc1.csv,,,,,,,
13387,"
    <div class=""gen_ins""; style=""font-size: 16px; text-align: center; margin-top: 25px; margin-right: 100px; margin-left: 100px; margin-bottom: 25px;"">
        <p>During this study, you will see a series of sentences, presented one-by-one. Each sentence will describe an event. It will be followed by 7 statements. You must indicate on a scale how much you agree with each statement. Click along the rating scales to respond. There are a total of 36 trials, and this portion of the study is expected to take 15 minutes.</p>
        <p>After you complete this task, you will have the opportunity to complete an optional survey.</p>
        <p>This is a pilot. There may be bugs. </p>
        <p>If you understand the instructions and are ready to begin, click ‘Continue’.</p>
    </div>
    ",html-button-response,1,2.1.0,23046,6942d96507ca4dc6182472ed,697959de24a1c569e8bf5a40,697a25316860312ff9d7854c,,,aqgobzzkc1.csv,,,,,,,
33137,,survey-html-form,2,2.1.0,56189,6942d96507ca4dc6182472ed,697959de24a1c569e8bf5a40,697a25316860312ff9d7854c,11.0,human,aqgobzzkc1.csv,3,7,7,7,7,7,4
34134,,survey-html-form,3,2.1.0,90327,6942d96507ca4dc6182472ed,697959de24a1c569e8bf5a40,697a25316860312ff9d7854c,26.0,instrument,aqgobzzkc1.csv,7,7,1,1,1,7,2
14569,,survey-html-form,4,2.1.0,104900,6942d96507ca4dc6182472ed,697959de24a1c569e8bf5a40,697a25316860312ff9d7854c,1.0,human,aqgobzzkc1.csv,7,7,7,7,7,7,4
16111,,survey-html-form,5,2.1.0,121014,6942d96507ca4dc6182472ed,697959de24a1c569e8bf5a40,697a25316860312ff9d7854c,7.0,human,aqgobzzkc1.csv,6,7,7,7,7,7,4
28446,,survey-html-form,6,2.1.0,149463,6942d96507ca4dc6182472ed,697959de24a1c569e8bf5a40,697a25316860312ff9d7854c,12.0,instrument,aqgobzzkc1.csv,2,7,1,1,1,5,4
20479,,survey-html-form,7,2.1.0,169945,6942d96507ca4dc6182472ed,697959de24a1c569e8bf5a40,697a25316860312ff9d7854c,25.0,human,aqgobzzkc1.csv,6,7,7,7,7,7,4
17806,,survey-html-form,8,2.1.0,187756,6942d96507ca4dc6182472ed,697959de24a1c569e8bf5a40,697a25316860312ff9d7854c,19.0,human,aqgobzzkc1.csv,7,7,7,7,7,7,4
14388,,survey-html-form,9,2.1.0,202148,6942d96507ca4dc6182472ed,697959de24a1c569e8bf5a40,697a25316860312ff9d7854c,13.0,human,aqgobzzkc1.csv,7,7,7,7,7,7,4
11360,,survey-html-form,10,2.1.0,213511,6942d96507ca4dc6182472ed,697959de24a1c569e8bf5a40,697a25316860312ff9d7854c,3.0,human,aqgobzzkc1.csv,7,7,7,7,7,7,4
27614,,survey-html-form,11,2.1.0,241127,6942d96507ca4dc6182472ed,697959de24a1c569e8bf5a40,697a25316860312ff9d7854c,20.0,instrument,aqgobzzkc1.csv,7,4,1,5,1,6,4
20689,,survey-html-form,12,2.1.0,261819,6942d96507ca4dc6182472ed,697959de24a1c569e8bf5a40,697a25316860312ff9d7854c,8.0,instrument,aqgobzzkc1.csv,7,6,1,1,1,5,4
24118,,survey-html-form,13,2.1.0,285940,6942d96507ca4dc6182472ed,697959de24a1c569e8bf5a40,697a25316860312ff9d7854c,16.0,instrument,aqgobzzkc1.csv,6,6,1,1,1,5,4
20718,,survey-html-form,14,2.1.0,306659,6942d96507ca4dc6182472ed,697959de24a1c569e8bf5a40,697a25316860312ff9d7854c,22.0,instrument,aqgobzzkc1.csv,5,6,1,5,1,5,4
45170,,survey-html-form,15,2.1.0,351831,6942d96507ca4dc6182472ed,697959de24a1c569e8bf5a40,697a25316860312ff9d7854c,9.0,human,aqgobzzkc1.csv,7,7,7,7,7,7,4
16090,,survey-html-form,16,2.1.0,367924,6942d96507ca4dc6182472ed,697959de24a1c569e8bf5a40,697a25316860312ff9d7854c,15.0,human,aqgobzzkc1.csv,7,7,7,7,7,7,4
20662,,survey-html-form,17,2.1.0,388589,6942d96507ca4dc6182472ed,697959de24a1c569e8bf5a40,697a25316860312ff9d7854c,14.0,instrument,aqgobzzkc1.csv,6,6,1,1,1,5,4
23064,,survey-html-form,18,2.1.0,411656,6942d96507ca4dc6182472ed,697959de24a1c569e8bf5a40,697a25316860312ff9d7854c,4.0,instrument,aqgobzzkc1.csv,2,5,1,1,1,3,4
18579,,survey-html-form,19,2.1.0,430237,6942d96507ca4dc6182472ed,697959de24a1c569e8bf5a40,697a25316860312ff9d7854c,6.0,instrument,aqgobzzkc1.csv,6,6,1,1,1,5,4
24949,,survey-html-form,20,2.1.0,455188,6942d96507ca4dc6182472ed,697959de24a1c569e8bf5a40,697a25316860312ff9d7854c,21.0,human,aqgobzzkc1.csv,6,7,7,6,7,7,4
19073,,survey-html-form,21,2.1.0,474263,6942d96507ca4dc6182472ed,697959de24a1c569e8bf5a40,697a25316860312ff9d7854c,23.0,human,aqgobzzkc1.csv,5,6,7,1,7,5,4
16916,,survey-html-form,22,2.1.0,491182,6942d96507ca4dc6182472ed,697959de24a1c569e8bf5a40,697a25316860312ff9d7854c,5.0,human,aqgobzzkc1.csv,7,7,7,7,7,7,4
23900,,survey-html-form,23,2.1.0,515084,6942d96507ca4dc6182472ed,697959de24a1c569e8bf5a40,697a25316860312ff9d7854c,24.0,instrument,aqgobzzkc1.csv,7,6,1,6,1,7,4
18907,,survey-html-form,24,2.1.0,533993,6942d96507ca4dc6182472ed,697959de24a1c569e8bf5a40,697a25316860312ff9d7854c,10.0,instrument,aqgobzzkc1.csv,3,6,1,1,1,3,4
16630,,survey-html-form,25,2.1.0,550624,6942d96507ca4dc6182472ed,697959de24a1c569e8bf5a40,697a25316860312ff9d7854c,18.0,instrument,aqgobzzkc1.csv,6,6,1,1,1,5,4
11586,,survey-html-form,26,2.1.0,562211,6942d96507ca4dc6182472ed,697959de24a1c569e8bf5a40,697a25316860312ff9d7854c,17.0,human,aqgobzzkc1.csv,7,7,7,7,7,7,4
15295,,survey-html-form,27,2.1.0,577509,6942d96507ca4dc6182472ed,697959de24a1c569e8bf5a40,697a25316860312ff9d7854c,2.0,instrument,aqgobzzkc1.csv,3,6,1,1,1,3,4
5466,"
    <div class=""gen_ins""; style=""font-size: 16px; text-align: center; margin-top: 25px; margin-right: 100px; margin-left: 100px; margin-bottom: 25px;"">
        <p>You have completed the rating trials. Next, you will be directed to an optional survey.</p>
        <p>Please answer any of the questions on the next page that you are comfortable answering. After seeing the survey, you will be able to end the experiment.</p>
        <p>Click ‘Continue’ to proceed to the survey.</p>
    </div>
    ",html-button-response,28,2.1.0,582976,6942d96507ca4dc6182472ed,697959de24a1c569e8bf5a40,697a25316860312ff9d7854c,,,aqgobzzkc1.csv,,,,,,,
234413,,survey,29,3.0.0,817503,6942d96507ca4dc6182472ed,697959de24a1c569e8bf5a40,697a25316860312ff9d7854c,,,aqgobzzkc1.csv,,,,,,,
6830,"
        <div style=""font-size: 16px; text-align: center; margin-top: 25px; margin-right: 100px; margin-left: 100px; margin-bottom: 25px;"">
            <img src=""./image/SUSig_2color_Stree_Left.png"" alt=""Stanford Logo"" style=""max-width: 500px; margin-bottom: 20px;"">
            <h3>DESCRIPTION</h3>
            <p>You are invited to participate in a research study on language perception. Its purpose is to help us understand what factors influence sentence construction. In the study, you will read a list of sentences and use rating scales to experess your opinions about the events described by each sentence. Following this, you will have the opportunity to complete an optional demographic survey. Participation in this research is voluntary, and you are free to withdraw your consent at any time.</p>
            <h3>TIME INVOLVEMENT</h3> 
            <p>Your participation will take approximately 15 minutes.</p>
            <h3>PAYMENT</h3> 
            <p>You will be paid at the posted rate.</p>
            <h3>PRIVACY AND CONFIDENTIALITY</h3> 
            <p>The risks associated with this study are minimal. This judgment is based on a large body of experience with the same or similar procedures with people of similar ages, sex, origins, etc. Study data will be stored securely, in compliance with Stanford University standards, minimizing the risk of confidentiality breach. Your individual privacy will be maintained during the research and in all published and written data resulting from the study.</p>
            <h3>CONTACT INFORMATION</h3>
            <p>If you have any questions, concerns or complaints about this research study, its procedures, risks and benefits, you should contact the Protocol Director, Grace Brown, at (616) 498-8188 or grcbrown@stanford.edu. If you are not satisfied with how this study is being conducted, or if you have any concerns, complaints, or general questions about the research or your rights as a participant, please contact the Stanford Institutional Review Board (IRB) to speak to someone independent of the research team at (650) 723-2480 or toll free at 1-866-680-2906, or email at irbnonmed@stanford.edu.</p> 
            <p>Please save or print a copy of this page for your records</p>
            <p>If you agree to participate in this research, please click the 'Continue' button.</p>
        </div>
    ",html-button-response,0,2.1.0,6833,6414da4319877aa1e31c301b,697959de24a1c569e8bf5a40,697a28fe37990e9229c0a58a,,,bnydvv5775.csv,,,,,,,
211798,"
    <div class=""gen_ins""; style=""font-size: 16px; text-align: center; margin-top: 25px; margin-right: 100px; margin-left: 100px; margin-bottom: 25px;"">
        <p>During this study, you will see a series of sentences, presented one-by-one. Each sentence will describe an event. It will be followed by 7 statements. You must indicate on a scale how much you agree with each statement. Click along the rating scales to respond. There are a total of 36 trials, and this portion of the study is expected to take 15 minutes.</p>
        <p>After you complete this task, you will have the opportunity to complete an optional survey.</p>
        <p>This is a pilot. There may be bugs. </p>
        <p>If you understand the instructions and are ready to begin, click ‘Continue’.</p>
    </div>
    ",html-button-response,1,2.1.0,218634,6414da4319877aa1e31c301b,697959de24a1c569e8bf5a40,697a28fe37990e9229c0a58a,,,bnydvv5775.csv,,,,,,,
42907,,survey-html-form,2,2.1.0,261544,6414da4319877aa1e31c301b,697959de24a1c569e8bf5a40,697a28fe37990e9229c0a58a,3.0,human,bnydvv5775.csv,7,7,7,7,7,7,7
19498,,survey-html-form,3,2.1.0,281044,6414da4319877aa1e31c301b,697959de24a1c569e8bf5a40,697a28fe37990e9229c0a58a,26.0,instrument,bnydvv5775.csv,7,7,1,7,1,7,7
10839,,survey-html-form,4,2.1.0,291887,6414da4319877aa1e31c301b,697959de24a1c569e8bf5a40,697a28fe37990e9229c0a58a,17.0,human,bnydvv5775.csv,7,7,7,7,7,7,7
16105,,survey-html-form,5,2.1.0,307994,6414da4319877aa1e31c301b,697959de24a1c569e8bf5a40,697a28fe37990e9229c0a58a,19.0,human,bnydvv5775.csv,7,7,7,7,7,7,7
28526,,survey-html-form,6,2.1.0,336523,6414da4319877aa1e31c301b,697959de24a1c569e8bf5a40,697a28fe37990e9229c0a58a,24.0,instrument,bnydvv5775.csv,7,1,1,5,1,7,7
30283,,survey-html-form,7,2.1.0,366810,6414da4319877aa1e31c301b,697959de24a1c569e8bf5a40,697a28fe37990e9229c0a58a,4.0,instrument,bnydvv5775.csv,7,7,1,1,1,7,7
14986,,survey-html-form,8,2.1.0,381797,6414da4319877aa1e31c301b,697959de24a1c569e8bf5a40,697a28fe37990e9229c0a58a,25.0,human,bnydvv5775.csv,7,7,7,1,7,7,7
15971,,survey-html-form,9,2.1.0,397769,6414da4319877aa1e31c301b,697959de24a1c569e8bf5a40,697a28fe37990e9229c0a58a,14.0,instrument,bnydvv5775.csv,7,7,1,1,1,7,7
20807,,survey-html-form,10,2.1.0,418579,6414da4319877aa1e31c301b,697959de24a1c569e8bf5a40,697a28fe37990e9229c0a58a,16.0,instrument,bnydvv5775.csv,7,7,1,1,1,6,7
19967,,survey-html-form,11,2.1.0,438548,6414da4319877aa1e31c301b,697959de24a1c569e8bf5a40,697a28fe37990e9229c0a58a,18.0,instrument,bnydvv5775.csv,7,5,1,1,1,4,7
23512,,survey-html-form,12,2.1.0,462062,6414da4319877aa1e31c301b,697959de24a1c569e8bf5a40,697a28fe37990e9229c0a58a,10.0,instrument,bnydvv5775.csv,7,7,1,1,1,4,7
18215,,survey-html-form,13,2.1.0,480279,6414da4319877aa1e31c301b,697959de24a1c569e8bf5a40,697a28fe37990e9229c0a58a,23.0,human,bnydvv5775.csv,7,1,7,1,7,4,7
20113,,survey-html-form,14,2.1.0,500394,6414da4319877aa1e31c301b,697959de24a1c569e8bf5a40,697a28fe37990e9229c0a58a,20.0,instrument,bnydvv5775.csv,7,1,1,7,1,7,7
14499,,survey-html-form,15,2.1.0,514894,6414da4319877aa1e31c301b,697959de24a1c569e8bf5a40,697a28fe37990e9229c0a58a,13.0,human,bnydvv5775.csv,7,7,7,7,7,7,7
22338,,survey-html-form,16,2.1.0,537233,6414da4319877aa1e31c301b,697959de24a1c569e8bf5a40,697a28fe37990e9229c0a58a,22.0,instrument,bnydvv5775.csv,7,5,1,5,1,7,7
13755,,survey-html-form,17,2.1.0,550991,6414da4319877aa1e31c301b,697959de24a1c569e8bf5a40,697a28fe37990e9229c0a58a,7.0,human,bnydvv5775.csv,7,7,7,7,7,7,7
13102,,survey-html-form,18,2.1.0,564096,6414da4319877aa1e31c301b,697959de24a1c569e8bf5a40,697a28fe37990e9229c0a58a,12.0,instrument,bnydvv5775.csv,7,7,1,1,1,5,7
16555,,survey-html-form,19,2.1.0,580653,6414da4319877aa1e31c301b,697959de24a1c569e8bf5a40,697a28fe37990e9229c0a58a,15.0,human,bnydvv5775.csv,7,7,7,7,7,7,7
15585,,survey-html-form,20,2.1.0,596241,6414da4319877aa1e31c301b,697959de24a1c569e8bf5a40,697a28fe37990e9229c0a58a,2.0,instrument,bnydvv5775.csv,7,7,1,1,1,4,7
15551,,survey-html-form,21,2.1.0,611795,6414da4319877aa1e31c301b,697959de24a1c569e8bf5a40,697a28fe37990e9229c0a58a,5.0,human,bnydvv5775.csv,7,7,7,7,7,7,7
14849,,survey-html-form,22,2.1.0,626646,6414da4319877aa1e31c301b,697959de24a1c569e8bf5a40,697a28fe37990e9229c0a58a,11.0,human,bnydvv5775.csv,7,7,7,7,7,6,7
11325,,survey-html-form,23,2.1.0,637975,6414da4319877aa1e31c301b,697959de24a1c569e8bf5a40,697a28fe37990e9229c0a58a,9.0,human,bnydvv5775.csv,7,7,7,7,7,6,7
15488,,survey-html-form,24,2.1.0,653463,6414da4319877aa1e31c301b,697959de24a1c569e8bf5a40,697a28fe37990e9229c0a58a,1.0,human,bnydvv5775.csv,7,5,7,7,7,7,7
13526,,survey-html-form,25,2.1.0,666991,6414da4319877aa1e31c301b,697959de24a1c569e8bf5a40,697a28fe37990e9229c0a58a,8.0,instrument,bnydvv5775.csv,7,7,1,1,1,6,7
26528,,survey-html-form,26,2.1.0,693520,6414da4319877aa1e31c301b,697959de24a1c569e8bf5a40,697a28fe37990e9229c0a58a,21.0,human,bnydvv5775.csv,7,5,7,1,7,6,7
9864,,survey-html-form,27,2.1.0,703386,6414da4319877aa1e31c301b,697959de24a1c569e8bf5a40,697a28fe37990e9229c0a58a,6.0,instrument,bnydvv5775.csv,7,7,1,1,1,5,7
7292,"
    <div class=""gen_ins""; style=""font-size: 16px; text-align: center; margin-top: 25px; margin-right: 100px; margin-left: 100px; margin-bottom: 25px;"">
        <p>You have completed the rating trials. Next, you will be directed to an optional survey.</p>
        <p>Please answer any of the questions on the next page that you are comfortable answering. After seeing the survey, you will be able to end the experiment.</p>
        <p>Click ‘Continue’ to proceed to the survey.</p>
    </div>
    ",html-button-response,28,2.1.0,710680,6414da4319877aa1e31c301b,697959de24a1c569e8bf5a40,697a28fe37990e9229c0a58a,,,bnydvv5775.csv,,,,,,,
95929,,survey,29,3.0.0,806720,6414da4319877aa1e31c301b,697959de24a1c569e8bf5a40,697a28fe37990e9229c0a58a,,,bnydvv5775.csv,,,,,,,
17573,"
        <div style=""font-size: 16px; text-align: center; margin-top: 25px; margin-right: 100px; margin-left: 100px; margin-bottom: 25px;"">
            <img src=""./image/SUSig_2color_Stree_Left.png"" alt=""Stanford Logo"" style=""max-width: 500px; margin-bottom: 20px;"">
            <h3>DESCRIPTION</h3>
            <p>You are invited to participate in a research study on language perception. Its purpose is to help us understand what factors influence sentence construction. In the study, you will read a list of sentences and use rating scales to experess your opinions about the events described by each sentence. Following this, you will have the opportunity to complete an optional demographic survey. Participation in this research is voluntary, and you are free to withdraw your consent at any time.</p>
            <h3>TIME INVOLVEMENT</h3> 
            <p>Your participation will take approximately 15 minutes.</p>
            <h3>PAYMENT</h3> 
            <p>You will be paid at the posted rate.</p>
            <h3>PRIVACY AND CONFIDENTIALITY</h3> 
            <p>The risks associated with this study are minimal. This judgment is based on a large body of experience with the same or similar procedures with people of similar ages, sex, origins, etc. Study data will be stored securely, in compliance with Stanford University standards, minimizing the risk of confidentiality breach. Your individual privacy will be maintained during the research and in all published and written data resulting from the study.</p>
            <h3>CONTACT INFORMATION</h3>
            <p>If you have any questions, concerns or complaints about this research study, its procedures, risks and benefits, you should contact the Protocol Director, Grace Brown, at (616) 498-8188 or grcbrown@stanford.edu. If you are not satisfied with how this study is being conducted, or if you have any concerns, complaints, or general questions about the research or your rights as a participant, please contact the Stanford Institutional Review Board (IRB) to speak to someone independent of the research team at (650) 723-2480 or toll free at 1-866-680-2906, or email at irbnonmed@stanford.edu.</p> 
            <p>Please save or print a copy of this page for your records</p>
            <p>If you agree to participate in this research, please click the 'Continue' button.</p>
        </div>
    ",html-button-response,0,2.1.0,17585,5737620867421f000d181393,697959de24a1c569e8bf5a40,697a2696e2529c312eb9543b,,,f42x3egadn.csv,,,,,,,
5469,"
    <div class=""gen_ins""; style=""font-size: 16px; text-align: center; margin-top: 25px; margin-right: 100px; margin-left: 100px; margin-bottom: 25px;"">
        <p>During this study, you will see a series of sentences, presented one-by-one. Each sentence will describe an event. It will be followed by 7 statements. You must indicate on a scale how much you agree with each statement. Click along the rating scales to respond. There are a total of 36 trials, and this portion of the study is expected to take 15 minutes.</p>
        <p>After you complete this task, you will have the opportunity to complete an optional survey.</p>
        <p>This is a pilot. There may be bugs. </p>
        <p>If you understand the instructions and are ready to begin, click ‘Continue’.</p>
    </div>
    ",html-button-response,1,2.1.0,23055,5737620867421f000d181393,697959de24a1c569e8bf5a40,697a2696e2529c312eb9543b,,,f42x3egadn.csv,,,,,,,
54106,,survey-html-form,2,2.1.0,77163,5737620867421f000d181393,697959de24a1c569e8bf5a40,697a2696e2529c312eb9543b,7.0,human,f42x3egadn.csv,7,6,7,7,7,7,5
25614,,survey-html-form,3,2.1.0,102778,5737620867421f000d181393,697959de24a1c569e8bf5a40,697a2696e2529c312eb9543b,24.0,instrument,f42x3egadn.csv,6,5,2,2,1,6,7
54681,,survey-html-form,4,2.1.0,157461,5737620867421f000d181393,697959de24a1c569e8bf5a40,697a2696e2529c312eb9543b,10.0,instrument,f42x3egadn.csv,5,5,1,1,1,2,7
11891,,survey-html-form,5,2.1.0,169355,5737620867421f000d181393,697959de24a1c569e8bf5a40,697a2696e2529c312eb9543b,12.0,instrument,f42x3egadn.csv,3,4,1,1,1,5,7
8268,,survey-html-form,6,2.1.0,177625,5737620867421f000d181393,697959de24a1c569e8bf5a40,697a2696e2529c312eb9543b,3.0,human,f42x3egadn.csv,7,7,7,7,7,7,6
11522,,survey-html-form,7,2.1.0,189150,5737620867421f000d181393,697959de24a1c569e8bf5a40,697a2696e2529c312eb9543b,11.0,human,f42x3egadn.csv,6,7,7,7,7,7,6
8266,,survey-html-form,8,2.1.0,197419,5737620867421f000d181393,697959de24a1c569e8bf5a40,697a2696e2529c312eb9543b,6.0,instrument,f42x3egadn.csv,6,6,1,1,1,5,7
13451,,survey-html-form,9,2.1.0,210874,5737620867421f000d181393,697959de24a1c569e8bf5a40,697a2696e2529c312eb9543b,22.0,instrument,f42x3egadn.csv,6,7,1,2,1,5,7
22249,,survey-html-form,10,2.1.0,233126,5737620867421f000d181393,697959de24a1c569e8bf5a40,697a2696e2529c312eb9543b,9.0,human,f42x3egadn.csv,6,7,7,7,7,7,6
49291,,survey-html-form,11,2.1.0,282420,5737620867421f000d181393,697959de24a1c569e8bf5a40,697a2696e2529c312eb9543b,16.0,instrument,f42x3egadn.csv,3,3,1,1,1,5,7
8259,,survey-html-form,12,2.1.0,290681,5737620867421f000d181393,697959de24a1c569e8bf5a40,697a2696e2529c312eb9543b,13.0,human,f42x3egadn.csv,7,6,7,7,7,7,7
7888,,survey-html-form,13,2.1.0,298570,5737620867421f000d181393,697959de24a1c569e8bf5a40,697a2696e2529c312eb9543b,5.0,human,f42x3egadn.csv,7,7,7,7,7,7,7
10354,,survey-html-form,14,2.1.0,308927,5737620867421f000d181393,697959de24a1c569e8bf5a40,697a2696e2529c312eb9543b,2.0,instrument,f42x3egadn.csv,6,3,1,1,1,6,7
70191,,survey-html-form,15,2.1.0,379122,5737620867421f000d181393,697959de24a1c569e8bf5a40,697a2696e2529c312eb9543b,17.0,human,f42x3egadn.csv,7,7,7,7,7,6,7
12284,,survey-html-form,16,2.1.0,391410,5737620867421f000d181393,697959de24a1c569e8bf5a40,697a2696e2529c312eb9543b,14.0,instrument,f42x3egadn.csv,6,5,1,1,1,5,7
42033,,survey-html-form,17,2.1.0,433445,5737620867421f000d181393,697959de24a1c569e8bf5a40,697a2696e2529c312eb9543b,19.0,human,f42x3egadn.csv,5,6,7,7,7,6,6
9350,,survey-html-form,18,2.1.0,442797,5737620867421f000d181393,697959de24a1c569e8bf5a40,697a2696e2529c312eb9543b,8.0,instrument,f42x3egadn.csv,6,2,1,1,1,5,2
58783,,survey-html-form,19,2.1.0,501581,5737620867421f000d181393,697959de24a1c569e8bf5a40,697a2696e2529c312eb9543b,25.0,human,f42x3egadn.csv,7,6,7,3,7,5,7
16986,,survey-html-form,20,2.1.0,518569,5737620867421f000d181393,697959de24a1c569e8bf5a40,697a2696e2529c312eb9543b,20.0,instrument,f42x3egadn.csv,6,2,1,5,1,6,7
36069,,survey-html-form,21,2.1.0,554640,5737620867421f000d181393,697959de24a1c569e8bf5a40,697a2696e2529c312eb9543b,21.0,human,f42x3egadn.csv,6,7,7,5,7,6,4
10783,,survey-html-form,22,2.1.0,565427,5737620867421f000d181393,697959de24a1c569e8bf5a40,697a2696e2529c312eb9543b,26.0,instrument,f42x3egadn.csv,6,7,1,5,1,5,7
500279,,survey-html-form,23,2.1.0,1065710,5737620867421f000d181393,697959de24a1c569e8bf5a40,697a2696e2529c312eb9543b,23.0,human,f42x3egadn.csv,6,6,7,2,7,6,7
6509,,survey-html-form,24,2.1.0,1072222,5737620867421f000d181393,697959de24a1c569e8bf5a40,697a2696e2529c312eb9543b,15.0,human,f42x3egadn.csv,7,7,7,7,7,6,7
22143,,survey-html-form,25,2.1.0,1094368,5737620867421f000d181393,697959de24a1c569e8bf5a40,697a2696e2529c312eb9543b,1.0,human,f42x3egadn.csv,6,6,7,3,7,4,5
9660,,survey-html-form,26,2.1.0,1104030,5737620867421f000d181393,697959de24a1c569e8bf5a40,697a2696e2529c312eb9543b,4.0,instrument,f42x3egadn.csv,6,3,1,1,1,5,7
7657,,survey-html-form,27,2.1.0,1111689,5737620867421f000d181393,697959de24a1c569e8bf5a40,697a2696e2529c312eb9543b,18.0,instrument,f42x3egadn.csv,7,3,1,1,1,7,7
2975,"
    <div class=""gen_ins""; style=""font-size: 16px; text-align: center; margin-top: 25px; margin-right: 100px; margin-left: 100px; margin-bottom: 25px;"">
        <p>You have completed the rating trials. Next, you will be directed to an optional survey.</p>
        <p>Please answer any of the questions on the next page that you are comfortable answering. After seeing the survey, you will be able to end the experiment.</p>
        <p>Click ‘Continue’ to proceed to the survey.</p>
    </div>
    ",html-button-response,28,2.1.0,1114665,5737620867421f000d181393,697959de24a1c569e8bf5a40,697a2696e2529c312eb9543b,,,f42x3egadn.csv,,,,,,,
62676,,survey,29,3.0.0,1177464,5737620867421f000d181393,697959de24a1c569e8bf5a40,697a2696e2529c312eb9543b,,,f42x3egadn.csv,,,,,,,
22761,"
        <div style=""font-size: 16px; text-align: center; margin-top: 25px; margin-right: 100px; margin-left: 100px; margin-bottom: 25px;"">
            <img src=""./image/SUSig_2color_Stree_Left.png"" alt=""Stanford Logo"" style=""max-width: 500px; margin-bottom: 20px;"">
            <h3>DESCRIPTION</h3>
            <p>You are invited to participate in a research study on language perception. Its purpose is to help us understand what factors influence sentence construction. In the study, you will read a list of sentences and use rating scales to experess your opinions about the events described by each sentence. Following this, you will have the opportunity to complete an optional demographic survey. Participation in this research is voluntary, and you are free to withdraw your consent at any time.</p>
            <h3>TIME INVOLVEMENT</h3> 
            <p>Your participation will take approximately 15 minutes.</p>
            <h3>PAYMENT</h3> 
            <p>You will be paid at the posted rate.</p>
            <h3>PRIVACY AND CONFIDENTIALITY</h3> 
            <p>The risks associated with this study are minimal. This judgment is based on a large body of experience with the same or similar procedures with people of similar ages, sex, origins, etc. Study data will be stored securely, in compliance with Stanford University standards, minimizing the risk of confidentiality breach. Your individual privacy will be maintained during the research and in all published and written data resulting from the study.</p>
            <h3>CONTACT INFORMATION</h3>
            <p>If you have any questions, concerns or complaints about this research study, its procedures, risks and benefits, you should contact the Protocol Director, Grace Brown, at (616) 498-8188 or grcbrown@stanford.edu. If you are not satisfied with how this study is being conducted, or if you have any concerns, complaints, or general questions about the research or your rights as a participant, please contact the Stanford Institutional Review Board (IRB) to speak to someone independent of the research team at (650) 723-2480 or toll free at 1-866-680-2906, or email at irbnonmed@stanford.edu.</p> 
            <p>Please save or print a copy of this page for your records</p>
            <p>If you agree to participate in this research, please click the 'Continue' button.</p>
        </div>
    ",html-button-response,0,2.1.0,22774,66c2c77d5b9a0a6d850046bb,697959de24a1c569e8bf5a40,697a29dc9c401d0e6e34581a,,,ga09qpkps8.csv,,,,,,,
15436,"
    <div class=""gen_ins""; style=""font-size: 16px; text-align: center; margin-top: 25px; margin-right: 100px; margin-left: 100px; margin-bottom: 25px;"">
        <p>During this study, you will see a series of sentences, presented one-by-one. Each sentence will describe an event. It will be followed by 7 statements. You must indicate on a scale how much you agree with each statement. Click along the rating scales to respond. There are a total of 36 trials, and this portion of the study is expected to take 15 minutes.</p>
        <p>After you complete this task, you will have the opportunity to complete an optional survey.</p>
        <p>This is a pilot. There may be bugs. </p>
        <p>If you understand the instructions and are ready to begin, click ‘Continue’.</p>
    </div>
    ",html-button-response,1,2.1.0,38214,66c2c77d5b9a0a6d850046bb,697959de24a1c569e8bf5a40,697a29dc9c401d0e6e34581a,,,ga09qpkps8.csv,,,,,,,
34122,,survey-html-form,2,2.1.0,72347,66c2c77d5b9a0a6d850046bb,697959de24a1c569e8bf5a40,697a29dc9c401d0e6e34581a,17.0,human,ga09qpkps8.csv,6,6,6,6,6,6,3
29093,,survey-html-form,3,2.1.0,101448,66c2c77d5b9a0a6d850046bb,697959de24a1c569e8bf5a40,697a29dc9c401d0e6e34581a,25.0,human,ga09qpkps8.csv,6,6,6,3,6,3,3
18752,,survey-html-form,4,2.1.0,120208,66c2c77d5b9a0a6d850046bb,697959de24a1c569e8bf5a40,697a29dc9c401d0e6e34581a,11.0,human,ga09qpkps8.csv,6,6,6,6,6,6,3
17824,,survey-html-form,5,2.1.0,138039,66c2c77d5b9a0a6d850046bb,697959de24a1c569e8bf5a40,697a29dc9c401d0e6e34581a,15.0,human,ga09qpkps8.csv,6,6,6,6,6,6,3
21601,,survey-html-form,6,2.1.0,159647,66c2c77d5b9a0a6d850046bb,697959de24a1c569e8bf5a40,697a29dc9c401d0e6e34581a,1.0,human,ga09qpkps8.csv,6,6,6,6,6,6,3
13529,,survey-html-form,7,2.1.0,173183,66c2c77d5b9a0a6d850046bb,697959de24a1c569e8bf5a40,697a29dc9c401d0e6e34581a,9.0,human,ga09qpkps8.csv,6,6,6,6,6,6,3
72929,,survey-html-form,8,2.1.0,246122,66c2c77d5b9a0a6d850046bb,697959de24a1c569e8bf5a40,697a29dc9c401d0e6e34581a,21.0,human,ga09qpkps8.csv,6,6,6,6,6,6,3
25862,,survey-html-form,9,2.1.0,271991,66c2c77d5b9a0a6d850046bb,697959de24a1c569e8bf5a40,697a29dc9c401d0e6e34581a,2.0,instrument,ga09qpkps8.csv,2,6,2,2,2,3,3
32407,,survey-html-form,10,2.1.0,304405,66c2c77d5b9a0a6d850046bb,697959de24a1c569e8bf5a40,697a29dc9c401d0e6e34581a,20.0,instrument,ga09qpkps8.csv,5,2,2,2,2,5,5
23413,,survey-html-form,11,2.1.0,327821,66c2c77d5b9a0a6d850046bb,697959de24a1c569e8bf5a40,697a29dc9c401d0e6e34581a,22.0,instrument,ga09qpkps8.csv,2,6,2,2,2,5,3
13766,,survey-html-form,12,2.1.0,341591,66c2c77d5b9a0a6d850046bb,697959de24a1c569e8bf5a40,697a29dc9c401d0e6e34581a,5.0,human,ga09qpkps8.csv,5,5,5,5,5,5,3
14808,,survey-html-form,13,2.1.0,356405,66c2c77d5b9a0a6d850046bb,697959de24a1c569e8bf5a40,697a29dc9c401d0e6e34581a,4.0,instrument,ga09qpkps8.csv,5,5,2,2,2,5,2
15669,,survey-html-form,14,2.1.0,372080,66c2c77d5b9a0a6d850046bb,697959de24a1c569e8bf5a40,697a29dc9c401d0e6e34581a,16.0,instrument,ga09qpkps8.csv,2,6,2,2,2,5,3
12776,,survey-html-form,15,2.1.0,384863,66c2c77d5b9a0a6d850046bb,697959de24a1c569e8bf5a40,697a29dc9c401d0e6e34581a,23.0,human,ga09qpkps8.csv,5,5,5,5,5,5,2
32208,,survey-html-form,16,2.1.0,417077,66c2c77d5b9a0a6d850046bb,697959de24a1c569e8bf5a40,697a29dc9c401d0e6e34581a,13.0,human,ga09qpkps8.csv,6,6,6,6,6,6,2
20102,,survey-html-form,17,2.1.0,437183,66c2c77d5b9a0a6d850046bb,697959de24a1c569e8bf5a40,697a29dc9c401d0e6e34581a,18.0,instrument,ga09qpkps8.csv,3,6,2,2,2,5,3
13770,,survey-html-form,18,2.1.0,450960,66c2c77d5b9a0a6d850046bb,697959de24a1c569e8bf5a40,697a29dc9c401d0e6e34581a,8.0,instrument,ga09qpkps8.csv,3,6,2,2,2,5,3
15728,,survey-html-form,19,2.1.0,466693,66c2c77d5b9a0a6d850046bb,697959de24a1c569e8bf5a40,697a29dc9c401d0e6e34581a,10.0,instrument,ga09qpkps8.csv,2,6,2,2,2,5,3
14470,,survey-html-form,20,2.1.0,481167,66c2c77d5b9a0a6d850046bb,697959de24a1c569e8bf5a40,697a29dc9c401d0e6e34581a,12.0,instrument,ga09qpkps8.csv,3,6,2,2,2,5,3
12482,,survey-html-form,21,2.1.0,493655,66c2c77d5b9a0a6d850046bb,697959de24a1c569e8bf5a40,697a29dc9c401d0e6e34581a,19.0,human,ga09qpkps8.csv,6,6,6,6,6,6,3
11241,,survey-html-form,22,2.1.0,504903,66c2c77d5b9a0a6d850046bb,697959de24a1c569e8bf5a40,697a29dc9c401d0e6e34581a,6.0,instrument,ga09qpkps8.csv,2,5,2,2,2,2,5
15465,,survey-html-form,23,2.1.0,520375,66c2c77d5b9a0a6d850046bb,697959de24a1c569e8bf5a40,697a29dc9c401d0e6e34581a,26.0,instrument,ga09qpkps8.csv,3,6,2,2,2,5,3
14801,,survey-html-form,24,2.1.0,535183,66c2c77d5b9a0a6d850046bb,697959de24a1c569e8bf5a40,697a29dc9c401d0e6e34581a,24.0,instrument,ga09qpkps8.csv,6,6,2,2,2,2,5
10825,,survey-html-form,25,2.1.0,546015,66c2c77d5b9a0a6d850046bb,697959de24a1c569e8bf5a40,697a29dc9c401d0e6e34581a,3.0,human,ga09qpkps8.csv,6,6,6,6,6,6,3
16899,,survey-html-form,26,2.1.0,562920,66c2c77d5b9a0a6d850046bb,697959de24a1c569e8bf5a40,697a29dc9c401d0e6e34581a,14.0,instrument,ga09qpkps8.csv,5,6,2,2,2,2,3
13272,,survey-html-form,27,2.1.0,576197,66c2c77d5b9a0a6d850046bb,697959de24a1c569e8bf5a40,697a29dc9c401d0e6e34581a,7.0,human,ga09qpkps8.csv,6,6,6,6,6,6,3
4390,"
    <div class=""gen_ins""; style=""font-size: 16px; text-align: center; margin-top: 25px; margin-right: 100px; margin-left: 100px; margin-bottom: 25px;"">
        <p>You have completed the rating trials. Next, you will be directed to an optional survey.</p>
        <p>Please answer any of the questions on the next page that you are comfortable answering. After seeing the survey, you will be able to end the experiment.</p>
        <p>Click ‘Continue’ to proceed to the survey.</p>
    </div>
    ",html-button-response,28,2.1.0,580590,66c2c77d5b9a0a6d850046bb,697959de24a1c569e8bf5a40,697a29dc9c401d0e6e34581a,,,ga09qpkps8.csv,,,,,,,
46236,,survey,29,3.0.0,627058,66c2c77d5b9a0a6d850046bb,697959de24a1c569e8bf5a40,697a29dc9c401d0e6e34581a,,,ga09qpkps8.csv,,,,,,,
546576,"
        <div style=""font-size: 16px; text-align: center; margin-top: 25px; margin-right: 100px; margin-left: 100px; margin-bottom: 25px;"">
            <img src=""./image/SUSig_2color_Stree_Left.png"" alt=""Stanford Logo"" style=""max-width: 500px; margin-bottom: 20px;"">
            <h3>DESCRIPTION</h3>
            <p>You are invited to participate in a research study on language perception. Its purpose is to help us understand what factors influence sentence construction. In the study, you will read a list of sentences and use rating scales to experess your opinions about the events described by each sentence. Following this, you will have the opportunity to complete an optional demographic survey. Participation in this research is voluntary, and you are free to withdraw your consent at any time.</p>
            <h3>TIME INVOLVEMENT</h3> 
            <p>Your participation will take approximately 15 minutes.</p>
            <h3>PAYMENT</h3> 
            <p>You will be paid at the posted rate.</p>
            <h3>PRIVACY AND CONFIDENTIALITY</h3> 
            <p>The risks associated with this study are minimal. This judgment is based on a large body of experience with the same or similar procedures with people of similar ages, sex, origins, etc. Study data will be stored securely, in compliance with Stanford University standards, minimizing the risk of confidentiality breach. Your individual privacy will be maintained during the research and in all published and written data resulting from the study.</p>
            <h3>CONTACT INFORMATION</h3>
            <p>If you have any questions, concerns or complaints about this research study, its procedures, risks and benefits, you should contact the Protocol Director, Grace Brown, at (616) 498-8188 or grcbrown@stanford.edu. If you are not satisfied with how this study is being conducted, or if you have any concerns, complaints, or general questions about the research or your rights as a participant, please contact the Stanford Institutional Review Board (IRB) to speak to someone independent of the research team at (650) 723-2480 or toll free at 1-866-680-2906, or email at irbnonmed@stanford.edu.</p> 
            <p>Please save or print a copy of this page for your records</p>
            <p>If you agree to participate in this research, please click the 'Continue' button.</p>
        </div>
    ",html-button-response,0,2.1.0,546585,5694e7b5e0c800000b5a3841,697959de24a1c569e8bf5a40,697a268cadaf993ddb854f8f,,,gdp9ym7tpv.csv,,,,,,,
34821,"
    <div class=""gen_ins""; style=""font-size: 16px; text-align: center; margin-top: 25px; margin-right: 100px; margin-left: 100px; margin-bottom: 25px;"">
        <p>During this study, you will see a series of sentences, presented one-by-one. Each sentence will describe an event. It will be followed by 7 statements. You must indicate on a scale how much you agree with each statement. Click along the rating scales to respond. There are a total of 36 trials, and this portion of the study is expected to take 15 minutes.</p>
        <p>After you complete this task, you will have the opportunity to complete an optional survey.</p>
        <p>This is a pilot. There may be bugs. </p>
        <p>If you understand the instructions and are ready to begin, click ‘Continue’.</p>
    </div>
    ",html-button-response,1,2.1.0,581407,5694e7b5e0c800000b5a3841,697959de24a1c569e8bf5a40,697a268cadaf993ddb854f8f,,,gdp9ym7tpv.csv,,,,,,,
33783,,survey-html-form,2,2.1.0,615192,5694e7b5e0c800000b5a3841,697959de24a1c569e8bf5a40,697a268cadaf993ddb854f8f,7.0,instrument,gdp9ym7tpv.csv,3,6,1,1,1,5,1
34220,,survey-html-form,3,2.1.0,649414,5694e7b5e0c800000b5a3841,697959de24a1c569e8bf5a40,697a268cadaf993ddb854f8f,20.0,human,gdp9ym7tpv.csv,7,7,7,7,7,7,3
18344,,survey-html-form,4,2.1.0,667759,5694e7b5e0c800000b5a3841,697959de24a1c569e8bf5a40,697a268cadaf993ddb854f8f,24.0,human,gdp9ym7tpv.csv,7,7,7,5,7,7,7
24030,,survey-html-form,5,2.1.0,691790,5694e7b5e0c800000b5a3841,697959de24a1c569e8bf5a40,697a268cadaf993ddb854f8f,26.0,human,gdp9ym7tpv.csv,7,7,7,5,7,7,7
12527,,survey-html-form,6,2.1.0,704318,5694e7b5e0c800000b5a3841,697959de24a1c569e8bf5a40,697a268cadaf993ddb854f8f,22.0,human,gdp9ym7tpv.csv,7,7,7,7,7,7,7
20503,,survey-html-form,7,2.1.0,724823,5694e7b5e0c800000b5a3841,697959de24a1c569e8bf5a40,697a268cadaf993ddb854f8f,3.0,instrument,gdp9ym7tpv.csv,7,7,1,1,1,5,5
10462,,survey-html-form,8,2.1.0,735286,5694e7b5e0c800000b5a3841,697959de24a1c569e8bf5a40,697a268cadaf993ddb854f8f,8.0,human,gdp9ym7tpv.csv,7,7,7,7,7,7,7
10440,,survey-html-form,9,2.1.0,745727,5694e7b5e0c800000b5a3841,697959de24a1c569e8bf5a40,697a268cadaf993ddb854f8f,2.0,human,gdp9ym7tpv.csv,7,7,7,7,7,7,7
18287,,survey-html-form,10,2.1.0,764016,5694e7b5e0c800000b5a3841,697959de24a1c569e8bf5a40,697a268cadaf993ddb854f8f,23.0,instrument,gdp9ym7tpv.csv,7,1,1,5,1,1,7
10511,,survey-html-form,11,2.1.0,774527,5694e7b5e0c800000b5a3841,697959de24a1c569e8bf5a40,697a268cadaf993ddb854f8f,12.0,human,gdp9ym7tpv.csv,7,7,7,7,7,7,7
9295,,survey-html-form,12,2.1.0,783823,5694e7b5e0c800000b5a3841,697959de24a1c569e8bf5a40,697a268cadaf993ddb854f8f,10.0,human,gdp9ym7tpv.csv,7,7,7,7,7,7,7
15647,,survey-html-form,13,2.1.0,799471,5694e7b5e0c800000b5a3841,697959de24a1c569e8bf5a40,697a268cadaf993ddb854f8f,9.0,instrument,gdp9ym7tpv.csv,7,7,1,1,1,1,7
9686,,survey-html-form,14,2.1.0,809158,5694e7b5e0c800000b5a3841,697959de24a1c569e8bf5a40,697a268cadaf993ddb854f8f,15.0,instrument,gdp9ym7tpv.csv,7,7,1,1,1,1,7
13536,,survey-html-form,15,2.1.0,822695,5694e7b5e0c800000b5a3841,697959de24a1c569e8bf5a40,697a268cadaf993ddb854f8f,21.0,instrument,gdp9ym7tpv.csv,7,5,1,1,1,1,3
9095,,survey-html-form,16,2.1.0,831791,5694e7b5e0c800000b5a3841,697959de24a1c569e8bf5a40,697a268cadaf993ddb854f8f,18.0,human,gdp9ym7tpv.csv,7,7,7,7,7,7,7
14006,,survey-html-form,17,2.1.0,845798,5694e7b5e0c800000b5a3841,697959de24a1c569e8bf5a40,697a268cadaf993ddb854f8f,19.0,instrument,gdp9ym7tpv.csv,7,7,1,1,1,1,7
11353,,survey-html-form,18,2.1.0,857151,5694e7b5e0c800000b5a3841,697959de24a1c569e8bf5a40,697a268cadaf993ddb854f8f,11.0,instrument,gdp9ym7tpv.csv,7,7,1,1,1,1,7
10382,,survey-html-form,19,2.1.0,867534,5694e7b5e0c800000b5a3841,697959de24a1c569e8bf5a40,697a268cadaf993ddb854f8f,1.0,instrument,gdp9ym7tpv.csv,7,5,1,1,1,1,7
10216,,survey-html-form,20,2.1.0,877751,5694e7b5e0c800000b5a3841,697959de24a1c569e8bf5a40,697a268cadaf993ddb854f8f,25.0,instrument,gdp9ym7tpv.csv,7,7,1,1,1,1,7
6775,,survey-html-form,21,2.1.0,884527,5694e7b5e0c800000b5a3841,697959de24a1c569e8bf5a40,697a268cadaf993ddb854f8f,16.0,human,gdp9ym7tpv.csv,7,7,7,7,7,7,7
12646,,survey-html-form,22,2.1.0,897174,5694e7b5e0c800000b5a3841,697959de24a1c569e8bf5a40,697a268cadaf993ddb854f8f,17.0,instrument,gdp9ym7tpv.csv,7,7,1,1,1,1,3
8687,,survey-html-form,23,2.1.0,905862,5694e7b5e0c800000b5a3841,697959de24a1c569e8bf5a40,697a268cadaf993ddb854f8f,14.0,human,gdp9ym7tpv.csv,7,7,7,7,7,7,7
16960,,survey-html-form,24,2.1.0,922823,5694e7b5e0c800000b5a3841,697959de24a1c569e8bf5a40,697a268cadaf993ddb854f8f,5.0,instrument,gdp9ym7tpv.csv,7,7,1,1,1,1,7
15904,,survey-html-form,25,2.1.0,938727,5694e7b5e0c800000b5a3841,697959de24a1c569e8bf5a40,697a268cadaf993ddb854f8f,6.0,human,gdp9ym7tpv.csv,7,7,7,7,7,7,7
7863,,survey-html-form,26,2.1.0,946591,5694e7b5e0c800000b5a3841,697959de24a1c569e8bf5a40,697a268cadaf993ddb854f8f,4.0,human,gdp9ym7tpv.csv,7,7,7,7,7,7,7
11168,,survey-html-form,27,2.1.0,957760,5694e7b5e0c800000b5a3841,697959de24a1c569e8bf5a40,697a268cadaf993ddb854f8f,13.0,instrument,gdp9ym7tpv.csv,7,7,1,1,1,1,7
1366,"
    <div class=""gen_ins""; style=""font-size: 16px; text-align: center; margin-top: 25px; margin-right: 100px; margin-left: 100px; margin-bottom: 25px;"">
        <p>You have completed the rating trials. Next, you will be directed to an optional survey.</p>
        <p>Please answer any of the questions on the next page that you are comfortable answering. After seeing the survey, you will be able to end the experiment.</p>
        <p>Click ‘Continue’ to proceed to the survey.</p>
    </div>
    ",html-button-response,28,2.1.0,959128,5694e7b5e0c800000b5a3841,697959de24a1c569e8bf5a40,697a268cadaf993ddb854f8f,,,gdp9ym7tpv.csv,,,,,,,
37751,,survey,29,3.0.0,996979,5694e7b5e0c800000b5a3841,697959de24a1c569e8bf5a40,697a268cadaf993ddb854f8f,,,gdp9ym7tpv.csv,,,,,,,
10320,"
        <div style=""font-size: 16px; text-align: center; margin-top: 25px; margin-right: 100px; margin-left: 100px; margin-bottom: 25px;"">
            <img src=""./image/SUSig_2color_Stree_Left.png"" alt=""Stanford Logo"" style=""max-width: 500px; margin-bottom: 20px;"">
            <h3>DESCRIPTION</h3>
            <p>You are invited to participate in a research study on language perception. Its purpose is to help us understand what factors influence sentence construction. In the study, you will read a list of sentences and use rating scales to experess your opinions about the events described by each sentence. Following this, you will have the opportunity to complete an optional demographic survey. Participation in this research is voluntary, and you are free to withdraw your consent at any time.</p>
            <h3>TIME INVOLVEMENT</h3> 
            <p>Your participation will take approximately 15 minutes.</p>
            <h3>PAYMENT</h3> 
            <p>You will be paid at the posted rate.</p>
            <h3>PRIVACY AND CONFIDENTIALITY</h3> 
            <p>The risks associated with this study are minimal. This judgment is based on a large body of experience with the same or similar procedures with people of similar ages, sex, origins, etc. Study data will be stored securely, in compliance with Stanford University standards, minimizing the risk of confidentiality breach. Your individual privacy will be maintained during the research and in all published and written data resulting from the study.</p>
            <h3>CONTACT INFORMATION</h3>
            <p>If you have any questions, concerns or complaints about this research study, its procedures, risks and benefits, you should contact the Protocol Director, Grace Brown, at (616) 498-8188 or grcbrown@stanford.edu. If you are not satisfied with how this study is being conducted, or if you have any concerns, complaints, or general questions about the research or your rights as a participant, please contact the Stanford Institutional Review Board (IRB) to speak to someone independent of the research team at (650) 723-2480 or toll free at 1-866-680-2906, or email at irbnonmed@stanford.edu.</p> 
            <p>Please save or print a copy of this page for your records</p>
            <p>If you agree to participate in this research, please click the 'Continue' button.</p>
        </div>
    ",html-button-response,0,2.1.0,10328,5dec8925be656d35d4005320,697959de24a1c569e8bf5a40,697a24b2b5f0bec4aaede53d,,,h1b1pkzxp7.csv,,,,,,,
20317,"
    <div class=""gen_ins""; style=""font-size: 16px; text-align: center; margin-top: 25px; margin-right: 100px; margin-left: 100px; margin-bottom: 25px;"">
        <p>During this study, you will see a series of sentences, presented one-by-one. Each sentence will describe an event. It will be followed by 7 statements. You must indicate on a scale how much you agree with each statement. Click along the rating scales to respond. There are a total of 36 trials, and this portion of the study is expected to take 15 minutes.</p>
        <p>After you complete this task, you will have the opportunity to complete an optional survey.</p>
        <p>This is a pilot. There may be bugs. </p>
        <p>If you understand the instructions and are ready to begin, click ‘Continue’.</p>
    </div>
    ",html-button-response,1,2.1.0,30646,5dec8925be656d35d4005320,697959de24a1c569e8bf5a40,697a24b2b5f0bec4aaede53d,,,h1b1pkzxp7.csv,,,,,,,
32429,,survey-html-form,2,2.1.0,63077,5dec8925be656d35d4005320,697959de24a1c569e8bf5a40,697a24b2b5f0bec4aaede53d,7.0,instrument,h1b1pkzxp7.csv,5,6,5,5,1,5,4
21501,,survey-html-form,3,2.1.0,84579,5dec8925be656d35d4005320,697959de24a1c569e8bf5a40,697a24b2b5f0bec4aaede53d,13.0,instrument,h1b1pkzxp7.csv,7,7,1,1,1,7,7
35289,,survey-html-form,4,2.1.0,119869,5dec8925be656d35d4005320,697959de24a1c569e8bf5a40,697a24b2b5f0bec4aaede53d,15.0,instrument,h1b1pkzxp7.csv,5,5,3,3,1,2,6
26677,,survey-html-form,5,2.1.0,146547,5dec8925be656d35d4005320,697959de24a1c569e8bf5a40,697a24b2b5f0bec4aaede53d,17.0,instrument,h1b1pkzxp7.csv,3,5,3,3,2,5,2
26303,,survey-html-form,6,2.1.0,172851,5dec8925be656d35d4005320,697959de24a1c569e8bf5a40,697a24b2b5f0bec4aaede53d,25.0,instrument,h1b1pkzxp7.csv,5,6,3,3,1,5,3
19897,,survey-html-form,7,2.1.0,192749,5dec8925be656d35d4005320,697959de24a1c569e8bf5a40,697a24b2b5f0bec4aaede53d,10.0,human,h1b1pkzxp7.csv,7,7,7,7,7,7,7
27855,,survey-html-form,8,2.1.0,220605,5dec8925be656d35d4005320,697959de24a1c569e8bf5a40,697a24b2b5f0bec4aaede53d,22.0,human,h1b1pkzxp7.csv,7,7,7,7,7,7,7
16147,,survey-html-form,9,2.1.0,236754,5dec8925be656d35d4005320,697959de24a1c569e8bf5a40,697a24b2b5f0bec4aaede53d,16.0,human,h1b1pkzxp7.csv,7,7,7,7,7,7,7
28192,,survey-html-form,10,2.1.0,264947,5dec8925be656d35d4005320,697959de24a1c569e8bf5a40,697a24b2b5f0bec4aaede53d,11.0,instrument,h1b1pkzxp7.csv,3,6,2,2,1,5,7
16409,,survey-html-form,11,2.1.0,281357,5dec8925be656d35d4005320,697959de24a1c569e8bf5a40,697a24b2b5f0bec4aaede53d,6.0,human,h1b1pkzxp7.csv,7,7,7,7,7,7,7
14167,,survey-html-form,12,2.1.0,295525,5dec8925be656d35d4005320,697959de24a1c569e8bf5a40,697a24b2b5f0bec4aaede53d,2.0,human,h1b1pkzxp7.csv,7,7,7,7,7,7,7
12794,,survey-html-form,13,2.1.0,308320,5dec8925be656d35d4005320,697959de24a1c569e8bf5a40,697a24b2b5f0bec4aaede53d,20.0,human,h1b1pkzxp7.csv,7,7,7,7,7,7,7
13207,,survey-html-form,14,2.1.0,321528,5dec8925be656d35d4005320,697959de24a1c569e8bf5a40,697a24b2b5f0bec4aaede53d,12.0,human,h1b1pkzxp7.csv,7,7,7,7,7,7,7
28597,,survey-html-form,15,2.1.0,350126,5dec8925be656d35d4005320,697959de24a1c569e8bf5a40,697a24b2b5f0bec4aaede53d,21.0,instrument,h1b1pkzxp7.csv,3,1,1,5,1,6,7
15429,,survey-html-form,16,2.1.0,365556,5dec8925be656d35d4005320,697959de24a1c569e8bf5a40,697a24b2b5f0bec4aaede53d,1.0,instrument,h1b1pkzxp7.csv,3,1,1,1,1,1,7
12508,,survey-html-form,17,2.1.0,378065,5dec8925be656d35d4005320,697959de24a1c569e8bf5a40,697a24b2b5f0bec4aaede53d,4.0,human,h1b1pkzxp7.csv,7,7,7,7,7,7,7
30330,,survey-html-form,18,2.1.0,408396,5dec8925be656d35d4005320,697959de24a1c569e8bf5a40,697a24b2b5f0bec4aaede53d,19.0,instrument,h1b1pkzxp7.csv,2,6,1,1,1,5,7
26684,,survey-html-form,19,2.1.0,435081,5dec8925be656d35d4005320,697959de24a1c569e8bf5a40,697a24b2b5f0bec4aaede53d,9.0,instrument,h1b1pkzxp7.csv,3,5,1,1,1,5,3
16882,,survey-html-form,20,2.1.0,451964,5dec8925be656d35d4005320,697959de24a1c569e8bf5a40,697a24b2b5f0bec4aaede53d,26.0,human,h1b1pkzxp7.csv,7,7,7,7,7,7,7
14152,,survey-html-form,21,2.1.0,466117,5dec8925be656d35d4005320,697959de24a1c569e8bf5a40,697a24b2b5f0bec4aaede53d,8.0,human,h1b1pkzxp7.csv,7,7,7,7,7,7,7
20130,,survey-html-form,22,2.1.0,486248,5dec8925be656d35d4005320,697959de24a1c569e8bf5a40,697a24b2b5f0bec4aaede53d,23.0,instrument,h1b1pkzxp7.csv,5,1,1,5,1,5,7
18277,,survey-html-form,23,2.1.0,504526,5dec8925be656d35d4005320,697959de24a1c569e8bf5a40,697a24b2b5f0bec4aaede53d,5.0,instrument,h1b1pkzxp7.csv,5,5,1,1,1,5,2
14280,,survey-html-form,24,2.1.0,518806,5dec8925be656d35d4005320,697959de24a1c569e8bf5a40,697a24b2b5f0bec4aaede53d,24.0,human,h1b1pkzxp7.csv,7,7,7,7,7,7,7
10664,,survey-html-form,25,2.1.0,529471,5dec8925be656d35d4005320,697959de24a1c569e8bf5a40,697a24b2b5f0bec4aaede53d,14.0,human,h1b1pkzxp7.csv,7,7,7,7,7,7,7
17737,,survey-html-form,26,2.1.0,547209,5dec8925be656d35d4005320,697959de24a1c569e8bf5a40,697a24b2b5f0bec4aaede53d,3.0,instrument,h1b1pkzxp7.csv,4,6,1,1,1,5,7
10125,,survey-html-form,27,2.1.0,557335,5dec8925be656d35d4005320,697959de24a1c569e8bf5a40,697a24b2b5f0bec4aaede53d,18.0,human,h1b1pkzxp7.csv,7,7,7,7,7,7,7
5864,"
    <div class=""gen_ins""; style=""font-size: 16px; text-align: center; margin-top: 25px; margin-right: 100px; margin-left: 100px; margin-bottom: 25px;"">
        <p>You have completed the rating trials. Next, you will be directed to an optional survey.</p>
        <p>Please answer any of the questions on the next page that you are comfortable answering. After seeing the survey, you will be able to end the experiment.</p>
        <p>Click ‘Continue’ to proceed to the survey.</p>
    </div>
    ",html-button-response,28,2.1.0,563200,5dec8925be656d35d4005320,697959de24a1c569e8bf5a40,697a24b2b5f0bec4aaede53d,,,h1b1pkzxp7.csv,,,,,,,
73040,,survey,29,3.0.0,636330,5dec8925be656d35d4005320,697959de24a1c569e8bf5a40,697a24b2b5f0bec4aaede53d,,,h1b1pkzxp7.csv,,,,,,,
5645,"
        <div style=""font-size: 16px; text-align: center; margin-top: 25px; margin-right: 100px; margin-left: 100px; margin-bottom: 25px;"">
            <img src=""./image/SUSig_2color_Stree_Left.png"" alt=""Stanford Logo"" style=""max-width: 500px; margin-bottom: 20px;"">
            <h3>DESCRIPTION</h3>
            <p>You are invited to participate in a research study on language perception. Its purpose is to help us understand what factors influence sentence construction. In the study, you will read a list of sentences and use rating scales to experess your opinions about the events described by each sentence. Following this, you will have the opportunity to complete an optional demographic survey. Participation in this research is voluntary, and you are free to withdraw your consent at any time.</p>
            <h3>TIME INVOLVEMENT</h3> 
            <p>Your participation will take approximately 15 minutes.</p>
            <h3>PAYMENT</h3> 
            <p>You will be paid at the posted rate.</p>
            <h3>PRIVACY AND CONFIDENTIALITY</h3> 
            <p>The risks associated with this study are minimal. This judgment is based on a large body of experience with the same or similar procedures with people of similar ages, sex, origins, etc. Study data will be stored securely, in compliance with Stanford University standards, minimizing the risk of confidentiality breach. Your individual privacy will be maintained during the research and in all published and written data resulting from the study.</p>
            <h3>CONTACT INFORMATION</h3>
            <p>If you have any questions, concerns or complaints about this research study, its procedures, risks and benefits, you should contact the Protocol Director, Grace Brown, at (616) 498-8188 or grcbrown@stanford.edu. If you are not satisfied with how this study is being conducted, or if you have any concerns, complaints, or general questions about the research or your rights as a participant, please contact the Stanford Institutional Review Board (IRB) to speak to someone independent of the research team at (650) 723-2480 or toll free at 1-866-680-2906, or email at irbnonmed@stanford.edu.</p> 
            <p>Please save or print a copy of this page for your records</p>
            <p>If you agree to participate in this research, please click the 'Continue' button.</p>
        </div>
    ",html-button-response,0,2.1.0,5694,60870dd7e185006f4bc26266,697959de24a1c569e8bf5a40,697a26c72eeae1c990374e03,,,h1rnn7jays.csv,,,,,,,
13752,"
    <div class=""gen_ins""; style=""font-size: 16px; text-align: center; margin-top: 25px; margin-right: 100px; margin-left: 100px; margin-bottom: 25px;"">
        <p>During this study, you will see a series of sentences, presented one-by-one. Each sentence will describe an event. It will be followed by 7 statements. You must indicate on a scale how much you agree with each statement. Click along the rating scales to respond. There are a total of 36 trials, and this portion of the study is expected to take 15 minutes.</p>
        <p>After you complete this task, you will have the opportunity to complete an optional survey.</p>
        <p>This is a pilot. There may be bugs. </p>
        <p>If you understand the instructions and are ready to begin, click ‘Continue’.</p>
    </div>
    ",html-button-response,1,2.1.0,19451,60870dd7e185006f4bc26266,697959de24a1c569e8bf5a40,697a26c72eeae1c990374e03,,,h1rnn7jays.csv,,,,,,,
15104,,survey-html-form,2,2.1.0,34557,60870dd7e185006f4bc26266,697959de24a1c569e8bf5a40,697a26c72eeae1c990374e03,22.0,human,h1rnn7jays.csv,6,6,6,6,6,6,6
22340,,survey-html-form,3,2.1.0,56901,60870dd7e185006f4bc26266,697959de24a1c569e8bf5a40,697a26c72eeae1c990374e03,9.0,instrument,h1rnn7jays.csv,5,1,1,1,1,2,5
17636,,survey-html-form,4,2.1.0,74541,60870dd7e185006f4bc26266,697959de24a1c569e8bf5a40,697a26c72eeae1c990374e03,13.0,instrument,h1rnn7jays.csv,5,6,1,1,1,1,5
39331,,survey-html-form,5,2.1.0,113876,60870dd7e185006f4bc26266,697959de24a1c569e8bf5a40,697a26c72eeae1c990374e03,23.0,instrument,h1rnn7jays.csv,6,2,3,5,1,5,3
10973,,survey-html-form,6,2.1.0,124852,60870dd7e185006f4bc26266,697959de24a1c569e8bf5a40,697a26c72eeae1c990374e03,8.0,human,h1rnn7jays.csv,6,6,7,7,7,7,5
14102,,survey-html-form,7,2.1.0,138956,60870dd7e185006f4bc26266,697959de24a1c569e8bf5a40,697a26c72eeae1c990374e03,5.0,instrument,h1rnn7jays.csv,5,2,1,1,1,2,5
46533,,survey-html-form,8,2.1.0,185493,60870dd7e185006f4bc26266,697959de24a1c569e8bf5a40,697a26c72eeae1c990374e03,16.0,human,h1rnn7jays.csv,6,5,6,6,7,6,5
11907,,survey-html-form,9,2.1.0,197404,60870dd7e185006f4bc26266,697959de24a1c569e8bf5a40,697a26c72eeae1c990374e03,12.0,human,h1rnn7jays.csv,6,6,7,7,7,6,6
9893,,survey-html-form,10,2.1.0,207300,60870dd7e185006f4bc26266,697959de24a1c569e8bf5a40,697a26c72eeae1c990374e03,6.0,human,h1rnn7jays.csv,6,7,7,7,7,6,6
17870,,survey-html-form,11,2.1.0,225172,60870dd7e185006f4bc26266,697959de24a1c569e8bf5a40,697a26c72eeae1c990374e03,25.0,instrument,h1rnn7jays.csv,5,5,2,3,1,3,5
28221,,survey-html-form,12,2.1.0,253395,60870dd7e185006f4bc26266,697959de24a1c569e8bf5a40,697a26c72eeae1c990374e03,1.0,instrument,h1rnn7jays.csv,3,5,1,1,1,2,5
11601,,survey-html-form,13,2.1.0,264998,60870dd7e185006f4bc26266,697959de24a1c569e8bf5a40,697a26c72eeae1c990374e03,14.0,human,h1rnn7jays.csv,6,7,7,7,7,6,3
16969,,survey-html-form,14,2.1.0,281970,60870dd7e185006f4bc26266,697959de24a1c569e8bf5a40,697a26c72eeae1c990374e03,26.0,human,h1rnn7jays.csv,6,6,7,7,7,6,3
9842,,survey-html-form,15,2.1.0,291814,60870dd7e185006f4bc26266,697959de24a1c569e8bf5a40,697a26c72eeae1c990374e03,20.0,human,h1rnn7jays.csv,6,6,7,7,7,7,6
14939,,survey-html-form,16,2.1.0,306755,60870dd7e185006f4bc26266,697959de24a1c569e8bf5a40,697a26c72eeae1c990374e03,21.0,instrument,h1rnn7jays.csv,3,2,1,1,1,5,4
41134,,survey-html-form,17,2.1.0,347891,60870dd7e185006f4bc26266,697959de24a1c569e8bf5a40,697a26c72eeae1c990374e03,7.0,instrument,h1rnn7jays.csv,3,5,1,1,1,2,3
17358,,survey-html-form,18,2.1.0,365251,60870dd7e185006f4bc26266,697959de24a1c569e8bf5a40,697a26c72eeae1c990374e03,24.0,human,h1rnn7jays.csv,5,5,7,7,7,6,5
9893,,survey-html-form,19,2.1.0,375147,60870dd7e185006f4bc26266,697959de24a1c569e8bf5a40,697a26c72eeae1c990374e03,18.0,human,h1rnn7jays.csv,6,6,7,7,7,6,5
11389,,survey-html-form,20,2.1.0,386538,60870dd7e185006f4bc26266,697959de24a1c569e8bf5a40,697a26c72eeae1c990374e03,4.0,human,h1rnn7jays.csv,6,6,7,7,7,6,3
18752,,survey-html-form,21,2.1.0,405291,60870dd7e185006f4bc26266,697959de24a1c569e8bf5a40,697a26c72eeae1c990374e03,19.0,instrument,h1rnn7jays.csv,5,5,1,1,1,2,5
39173,,survey-html-form,22,2.1.0,444467,60870dd7e185006f4bc26266,697959de24a1c569e8bf5a40,697a26c72eeae1c990374e03,3.0,instrument,h1rnn7jays.csv,5,5,1,1,1,2,5
13566,,survey-html-form,23,2.1.0,458035,60870dd7e185006f4bc26266,697959de24a1c569e8bf5a40,697a26c72eeae1c990374e03,15.0,instrument,h1rnn7jays.csv,3,5,1,1,1,2,5
9668,,survey-html-form,24,2.1.0,467705,60870dd7e185006f4bc26266,697959de24a1c569e8bf5a40,697a26c72eeae1c990374e03,2.0,human,h1rnn7jays.csv,6,6,7,7,7,6,3
9291,,survey-html-form,25,2.1.0,476997,60870dd7e185006f4bc26266,697959de24a1c569e8bf5a40,697a26c72eeae1c990374e03,10.0,human,h1rnn7jays.csv,6,7,7,7,7,7,5
17075,,survey-html-form,26,2.1.0,494074,60870dd7e185006f4bc26266,697959de24a1c569e8bf5a40,697a26c72eeae1c990374e03,17.0,instrument,h1rnn7jays.csv,3,3,1,1,1,2,3
16173,,survey-html-form,27,2.1.0,510250,60870dd7e185006f4bc26266,697959de24a1c569e8bf5a40,697a26c72eeae1c990374e03,11.0,instrument,h1rnn7jays.csv,3,5,1,1,1,2,3
2124,"
    <div class=""gen_ins""; style=""font-size: 16px; text-align: center; margin-top: 25px; margin-right: 100px; margin-left: 100px; margin-bottom: 25px;"">
        <p>You have completed the rating trials. Next, you will be directed to an optional survey.</p>
        <p>Please answer any of the questions on the next page that you are comfortable answering. After seeing the survey, you will be able to end the experiment.</p>
        <p>Click ‘Continue’ to proceed to the survey.</p>
    </div>
    ",html-button-response,28,2.1.0,512378,60870dd7e185006f4bc26266,697959de24a1c569e8bf5a40,697a26c72eeae1c990374e03,,,h1rnn7jays.csv,,,,,,,
341937,,survey,29,3.0.0,854457,60870dd7e185006f4bc26266,697959de24a1c569e8bf5a40,697a26c72eeae1c990374e03,,,h1rnn7jays.csv,,,,,,,
7414,"
        <div style=""font-size: 16px; text-align: center; margin-top: 25px; margin-right: 100px; margin-left: 100px; margin-bottom: 25px;"">
            <img src=""./image/SUSig_2color_Stree_Left.png"" alt=""Stanford Logo"" style=""max-width: 500px; margin-bottom: 20px;"">
            <h3>DESCRIPTION</h3>
            <p>You are invited to participate in a research study on language perception. Its purpose is to help us understand what factors influence sentence construction. In the study, you will read a list of sentences and use rating scales to experess your opinions about the events described by each sentence. Following this, you will have the opportunity to complete an optional demographic survey. Participation in this research is voluntary, and you are free to withdraw your consent at any time.</p>
            <h3>TIME INVOLVEMENT</h3> 
            <p>Your participation will take approximately 15 minutes.</p>
            <h3>PAYMENT</h3> 
            <p>You will be paid at the posted rate.</p>
            <h3>PRIVACY AND CONFIDENTIALITY</h3> 
            <p>The risks associated with this study are minimal. This judgment is based on a large body of experience with the same or similar procedures with people of similar ages, sex, origins, etc. Study data will be stored securely, in compliance with Stanford University standards, minimizing the risk of confidentiality breach. Your individual privacy will be maintained during the research and in all published and written data resulting from the study.</p>
            <h3>CONTACT INFORMATION</h3>
            <p>If you have any questions, concerns or complaints about this research study, its procedures, risks and benefits, you should contact the Protocol Director, Grace Brown, at (616) 498-8188 or grcbrown@stanford.edu. If you are not satisfied with how this study is being conducted, or if you have any concerns, complaints, or general questions about the research or your rights as a participant, please contact the Stanford Institutional Review Board (IRB) to speak to someone independent of the research team at (650) 723-2480 or toll free at 1-866-680-2906, or email at irbnonmed@stanford.edu.</p> 
            <p>Please save or print a copy of this page for your records</p>
            <p>If you agree to participate in this research, please click the 'Continue' button.</p>
        </div>
    ",html-button-response,0,2.1.0,7436,592ed8978ad1ae0001937919,697959de24a1c569e8bf5a40,697a28ea04a82ee7f8d7d6e1,,,hecbxdhxvw.csv,,,,,,,
17141,"
    <div class=""gen_ins""; style=""font-size: 16px; text-align: center; margin-top: 25px; margin-right: 100px; margin-left: 100px; margin-bottom: 25px;"">
        <p>During this study, you will see a series of sentences, presented one-by-one. Each sentence will describe an event. It will be followed by 7 statements. You must indicate on a scale how much you agree with each statement. Click along the rating scales to respond. There are a total of 36 trials, and this portion of the study is expected to take 15 minutes.</p>
        <p>After you complete this task, you will have the opportunity to complete an optional survey.</p>
        <p>This is a pilot. There may be bugs. </p>
        <p>If you understand the instructions and are ready to begin, click ‘Continue’.</p>
    </div>
    ",html-button-response,1,2.1.0,24582,592ed8978ad1ae0001937919,697959de24a1c569e8bf5a40,697a28ea04a82ee7f8d7d6e1,,,hecbxdhxvw.csv,,,,,,,
28339,,survey-html-form,2,2.1.0,52939,592ed8978ad1ae0001937919,697959de24a1c569e8bf5a40,697a28ea04a82ee7f8d7d6e1,19.0,instrument,hecbxdhxvw.csv,2,6,1,1,1,2,7
17690,,survey-html-form,3,2.1.0,70632,592ed8978ad1ae0001937919,697959de24a1c569e8bf5a40,697a28ea04a82ee7f8d7d6e1,18.0,human,hecbxdhxvw.csv,7,7,7,7,7,7,7
18891,,survey-html-form,4,2.1.0,89528,592ed8978ad1ae0001937919,697959de24a1c569e8bf5a40,697a28ea04a82ee7f8d7d6e1,11.0,instrument,hecbxdhxvw.csv,1,6,1,1,1,1,7
18924,,survey-html-form,5,2.1.0,108455,592ed8978ad1ae0001937919,697959de24a1c569e8bf5a40,697a28ea04a82ee7f8d7d6e1,10.0,human,hecbxdhxvw.csv,7,7,7,7,7,7,7
26285,,survey-html-form,6,2.1.0,134744,592ed8978ad1ae0001937919,697959de24a1c569e8bf5a40,697a28ea04a82ee7f8d7d6e1,3.0,instrument,hecbxdhxvw.csv,2,6,1,1,1,1,7
18195,,survey-html-form,7,2.1.0,152942,592ed8978ad1ae0001937919,697959de24a1c569e8bf5a40,697a28ea04a82ee7f8d7d6e1,7.0,instrument,hecbxdhxvw.csv,1,7,1,1,1,1,7
15336,,survey-html-form,8,2.1.0,168281,592ed8978ad1ae0001937919,697959de24a1c569e8bf5a40,697a28ea04a82ee7f8d7d6e1,13.0,instrument,hecbxdhxvw.csv,2,7,1,1,1,1,7
15388,,survey-html-form,9,2.1.0,183672,592ed8978ad1ae0001937919,697959de24a1c569e8bf5a40,697a28ea04a82ee7f8d7d6e1,20.0,human,hecbxdhxvw.csv,7,7,7,7,7,7,7
14760,,survey-html-form,10,2.1.0,198435,592ed8978ad1ae0001937919,697959de24a1c569e8bf5a40,697a28ea04a82ee7f8d7d6e1,17.0,instrument,hecbxdhxvw.csv,1,7,1,1,1,1,2
27238,,survey-html-form,11,2.1.0,225676,592ed8978ad1ae0001937919,697959de24a1c569e8bf5a40,697a28ea04a82ee7f8d7d6e1,5.0,instrument,hecbxdhxvw.csv,5,7,1,1,1,5,7
25565,,survey-html-form,12,2.1.0,251244,592ed8978ad1ae0001937919,697959de24a1c569e8bf5a40,697a28ea04a82ee7f8d7d6e1,24.0,human,hecbxdhxvw.csv,7,7,7,3,7,6,7
11559,,survey-html-form,13,2.1.0,262806,592ed8978ad1ae0001937919,697959de24a1c569e8bf5a40,697a28ea04a82ee7f8d7d6e1,14.0,human,hecbxdhxvw.csv,7,7,7,7,7,7,7
10880,,survey-html-form,14,2.1.0,273690,592ed8978ad1ae0001937919,697959de24a1c569e8bf5a40,697a28ea04a82ee7f8d7d6e1,16.0,human,hecbxdhxvw.csv,7,7,7,7,7,7,7
24445,,survey-html-form,15,2.1.0,298139,592ed8978ad1ae0001937919,697959de24a1c569e8bf5a40,697a28ea04a82ee7f8d7d6e1,23.0,instrument,hecbxdhxvw.csv,2,1,1,6,1,5,7
15587,,survey-html-form,16,2.1.0,313729,592ed8978ad1ae0001937919,697959de24a1c569e8bf5a40,697a28ea04a82ee7f8d7d6e1,22.0,human,hecbxdhxvw.csv,7,7,7,7,7,6,7
43216,,survey-html-form,17,2.1.0,356948,592ed8978ad1ae0001937919,697959de24a1c569e8bf5a40,697a28ea04a82ee7f8d7d6e1,21.0,instrument,hecbxdhxvw.csv,3,7,1,5,1,2,3
22006,,survey-html-form,18,2.1.0,378957,592ed8978ad1ae0001937919,697959de24a1c569e8bf5a40,697a28ea04a82ee7f8d7d6e1,9.0,instrument,hecbxdhxvw.csv,5,7,1,1,1,5,2
19848,,survey-html-form,19,2.1.0,398809,592ed8978ad1ae0001937919,697959de24a1c569e8bf5a40,697a28ea04a82ee7f8d7d6e1,25.0,instrument,hecbxdhxvw.csv,5,7,1,1,1,2,6
14832,,survey-html-form,20,2.1.0,413643,592ed8978ad1ae0001937919,697959de24a1c569e8bf5a40,697a28ea04a82ee7f8d7d6e1,2.0,human,hecbxdhxvw.csv,7,7,7,7,7,7,7
16097,,survey-html-form,21,2.1.0,429742,592ed8978ad1ae0001937919,697959de24a1c569e8bf5a40,697a28ea04a82ee7f8d7d6e1,4.0,human,hecbxdhxvw.csv,7,7,7,7,7,7,7
19867,,survey-html-form,22,2.1.0,449612,592ed8978ad1ae0001937919,697959de24a1c569e8bf5a40,697a28ea04a82ee7f8d7d6e1,1.0,instrument,hecbxdhxvw.csv,1,7,1,1,1,5,3
17465,,survey-html-form,23,2.1.0,467081,592ed8978ad1ae0001937919,697959de24a1c569e8bf5a40,697a28ea04a82ee7f8d7d6e1,15.0,instrument,hecbxdhxvw.csv,1,7,1,1,1,1,6
12832,,survey-html-form,24,2.1.0,479916,592ed8978ad1ae0001937919,697959de24a1c569e8bf5a40,697a28ea04a82ee7f8d7d6e1,6.0,human,hecbxdhxvw.csv,7,7,7,7,7,7,7
19908,,survey-html-form,25,2.1.0,499829,592ed8978ad1ae0001937919,697959de24a1c569e8bf5a40,697a28ea04a82ee7f8d7d6e1,26.0,human,hecbxdhxvw.csv,7,7,7,2,7,7,7
17177,,survey-html-form,26,2.1.0,517010,592ed8978ad1ae0001937919,697959de24a1c569e8bf5a40,697a28ea04a82ee7f8d7d6e1,8.0,human,hecbxdhxvw.csv,7,7,7,7,7,7,7
13363,,survey-html-form,27,2.1.0,530376,592ed8978ad1ae0001937919,697959de24a1c569e8bf5a40,697a28ea04a82ee7f8d7d6e1,12.0,human,hecbxdhxvw.csv,7,7,7,7,7,7,7
9260,"
    <div class=""gen_ins""; style=""font-size: 16px; text-align: center; margin-top: 25px; margin-right: 100px; margin-left: 100px; margin-bottom: 25px;"">
        <p>You have completed the rating trials. Next, you will be directed to an optional survey.</p>
        <p>Please answer any of the questions on the next page that you are comfortable answering. After seeing the survey, you will be able to end the experiment.</p>
        <p>Click ‘Continue’ to proceed to the survey.</p>
    </div>
    ",html-button-response,28,2.1.0,539671,592ed8978ad1ae0001937919,697959de24a1c569e8bf5a40,697a28ea04a82ee7f8d7d6e1,,,hecbxdhxvw.csv,,,,,,,
122419,,survey,29,3.0.0,662477,592ed8978ad1ae0001937919,697959de24a1c569e8bf5a40,697a28ea04a82ee7f8d7d6e1,,,hecbxdhxvw.csv,,,,,,,
11073,"
        <div style=""font-size: 16px; text-align: center; margin-top: 25px; margin-right: 100px; margin-left: 100px; margin-bottom: 25px;"">
            <img src=""./image/SUSig_2color_Stree_Left.png"" alt=""Stanford Logo"" style=""max-width: 500px; margin-bottom: 20px;"">
            <h3>DESCRIPTION</h3>
            <p>You are invited to participate in a research study on language perception. Its purpose is to help us understand what factors influence sentence construction. In the study, you will read a list of sentences and use rating scales to experess your opinions about the events described by each sentence. Following this, you will have the opportunity to complete an optional demographic survey. Participation in this research is voluntary, and you are free to withdraw your consent at any time.</p>
            <h3>TIME INVOLVEMENT</h3> 
            <p>Your participation will take approximately 15 minutes.</p>
            <h3>PAYMENT</h3> 
            <p>You will be paid at the posted rate.</p>
            <h3>PRIVACY AND CONFIDENTIALITY</h3> 
            <p>The risks associated with this study are minimal. This judgment is based on a large body of experience with the same or similar procedures with people of similar ages, sex, origins, etc. Study data will be stored securely, in compliance with Stanford University standards, minimizing the risk of confidentiality breach. Your individual privacy will be maintained during the research and in all published and written data resulting from the study.</p>
            <h3>CONTACT INFORMATION</h3>
            <p>If you have any questions, concerns or complaints about this research study, its procedures, risks and benefits, you should contact the Protocol Director, Grace Brown, at (616) 498-8188 or grcbrown@stanford.edu. If you are not satisfied with how this study is being conducted, or if you have any concerns, complaints, or general questions about the research or your rights as a participant, please contact the Stanford Institutional Review Board (IRB) to speak to someone independent of the research team at (650) 723-2480 or toll free at 1-866-680-2906, or email at irbnonmed@stanford.edu.</p> 
            <p>Please save or print a copy of this page for your records</p>
            <p>If you agree to participate in this research, please click the 'Continue' button.</p>
        </div>
    ",html-button-response,0,2.1.0,11079,66ba7e4126d266ff3cdf6d79,697959de24a1c569e8bf5a40,697a3e2d09a08016aab30c77,,,hnee89ousm.csv,,,,,,,
4749,"
    <div class=""gen_ins""; style=""font-size: 16px; text-align: center; margin-top: 25px; margin-right: 100px; margin-left: 100px; margin-bottom: 25px;"">
        <p>During this study, you will see a series of sentences, presented one-by-one. Each sentence will describe an event. It will be followed by 7 statements. You must indicate on a scale how much you agree with each statement. Click along the rating scales to respond. There are a total of 36 trials, and this portion of the study is expected to take 15 minutes.</p>
        <p>After you complete this task, you will have the opportunity to complete an optional survey.</p>
        <p>This is a pilot. There may be bugs. </p>
        <p>If you understand the instructions and are ready to begin, click ‘Continue’.</p>
    </div>
    ",html-button-response,1,2.1.0,15829,66ba7e4126d266ff3cdf6d79,697959de24a1c569e8bf5a40,697a3e2d09a08016aab30c77,,,hnee89ousm.csv,,,,,,,
35451,,survey-html-form,2,2.1.0,51282,66ba7e4126d266ff3cdf6d79,697959de24a1c569e8bf5a40,697a3e2d09a08016aab30c77,16.0,instrument,hnee89ousm.csv,1,6,1,1,1,2,2
29598,,survey-html-form,3,2.1.0,80882,66ba7e4126d266ff3cdf6d79,697959de24a1c569e8bf5a40,697a3e2d09a08016aab30c77,24.0,instrument,hnee89ousm.csv,6,2,1,5,1,6,1
49801,,survey-html-form,4,2.1.0,130684,66ba7e4126d266ff3cdf6d79,697959de24a1c569e8bf5a40,697a3e2d09a08016aab30c77,8.0,instrument,hnee89ousm.csv,2,6,1,1,1,5,5
41981,,survey-html-form,5,2.1.0,172667,66ba7e4126d266ff3cdf6d79,697959de24a1c569e8bf5a40,697a3e2d09a08016aab30c77,7.0,human,hnee89ousm.csv,7,5,7,7,7,7,5
50031,,survey-html-form,6,2.1.0,222700,66ba7e4126d266ff3cdf6d79,697959de24a1c569e8bf5a40,697a3e2d09a08016aab30c77,25.0,human,hnee89ousm.csv,7,7,7,5,7,7,4
17834,,survey-html-form,7,2.1.0,240535,66ba7e4126d266ff3cdf6d79,697959de24a1c569e8bf5a40,697a3e2d09a08016aab30c77,23.0,human,hnee89ousm.csv,7,5,6,3,7,5,5
36150,,survey-html-form,8,2.1.0,276687,66ba7e4126d266ff3cdf6d79,697959de24a1c569e8bf5a40,697a3e2d09a08016aab30c77,6.0,instrument,hnee89ousm.csv,5,6,1,1,1,6,5
39431,,survey-html-form,9,2.1.0,316120,66ba7e4126d266ff3cdf6d79,697959de24a1c569e8bf5a40,697a3e2d09a08016aab30c77,26.0,instrument,hnee89ousm.csv,6,6,1,5,1,6,4
52149,,survey-html-form,10,2.1.0,368270,66ba7e4126d266ff3cdf6d79,697959de24a1c569e8bf5a40,697a3e2d09a08016aab30c77,10.0,instrument,hnee89ousm.csv,6,6,1,3,1,5,3
35499,,survey-html-form,11,2.1.0,403771,66ba7e4126d266ff3cdf6d79,697959de24a1c569e8bf5a40,697a3e2d09a08016aab30c77,21.0,human,hnee89ousm.csv,7,7,7,7,7,7,5
40933,,survey-html-form,12,2.1.0,444705,66ba7e4126d266ff3cdf6d79,697959de24a1c569e8bf5a40,697a3e2d09a08016aab30c77,4.0,instrument,hnee89ousm.csv,1,1,1,1,1,2,4
53416,,survey-html-form,13,2.1.0,498124,66ba7e4126d266ff3cdf6d79,697959de24a1c569e8bf5a40,697a3e2d09a08016aab30c77,14.0,instrument,hnee89ousm.csv,6,6,1,2,1,3,3
15414,,survey-html-form,14,2.1.0,513540,66ba7e4126d266ff3cdf6d79,697959de24a1c569e8bf5a40,697a3e2d09a08016aab30c77,5.0,human,hnee89ousm.csv,7,7,7,5,7,5,5
21633,,survey-html-form,15,2.1.0,535174,66ba7e4126d266ff3cdf6d79,697959de24a1c569e8bf5a40,697a3e2d09a08016aab30c77,12.0,instrument,hnee89ousm.csv,1,5,1,5,1,5,3
17847,,survey-html-form,16,2.1.0,553023,66ba7e4126d266ff3cdf6d79,697959de24a1c569e8bf5a40,697a3e2d09a08016aab30c77,18.0,instrument,hnee89ousm.csv,1,5,1,2,1,6,3
12882,,survey-html-form,17,2.1.0,565906,66ba7e4126d266ff3cdf6d79,697959de24a1c569e8bf5a40,697a3e2d09a08016aab30c77,9.0,human,hnee89ousm.csv,7,7,7,6,7,7,5
28200,,survey-html-form,18,2.1.0,594107,66ba7e4126d266ff3cdf6d79,697959de24a1c569e8bf5a40,697a3e2d09a08016aab30c77,15.0,human,hnee89ousm.csv,7,7,7,6,7,7,4
50566,,survey-html-form,19,2.1.0,644674,66ba7e4126d266ff3cdf6d79,697959de24a1c569e8bf5a40,697a3e2d09a08016aab30c77,3.0,human,hnee89ousm.csv,7,7,7,6,7,6,4
41517,,survey-html-form,20,2.1.0,686192,66ba7e4126d266ff3cdf6d79,697959de24a1c569e8bf5a40,697a3e2d09a08016aab30c77,2.0,instrument,hnee89ousm.csv,1,5,1,3,1,3,2
79751,,survey-html-form,21,2.1.0,765944,66ba7e4126d266ff3cdf6d79,697959de24a1c569e8bf5a40,697a3e2d09a08016aab30c77,1.0,human,hnee89ousm.csv,7,7,7,6,7,7,6
55582,,survey-html-form,22,2.1.0,821528,66ba7e4126d266ff3cdf6d79,697959de24a1c569e8bf5a40,697a3e2d09a08016aab30c77,20.0,instrument,hnee89ousm.csv,6,2,1,6,1,6,5
26782,,survey-html-form,23,2.1.0,848311,66ba7e4126d266ff3cdf6d79,697959de24a1c569e8bf5a40,697a3e2d09a08016aab30c77,13.0,human,hnee89ousm.csv,7,3,7,5,7,5,5
19799,,survey-html-form,24,2.1.0,868113,66ba7e4126d266ff3cdf6d79,697959de24a1c569e8bf5a40,697a3e2d09a08016aab30c77,11.0,human,hnee89ousm.csv,7,7,7,7,7,6,5
21682,,survey-html-form,25,2.1.0,889796,66ba7e4126d266ff3cdf6d79,697959de24a1c569e8bf5a40,697a3e2d09a08016aab30c77,17.0,human,hnee89ousm.csv,7,7,7,7,7,7,5
21116,,survey-html-form,26,2.1.0,910913,66ba7e4126d266ff3cdf6d79,697959de24a1c569e8bf5a40,697a3e2d09a08016aab30c77,22.0,instrument,hnee89ousm.csv,6,7,1,5,1,7,5
21182,,survey-html-form,27,2.1.0,932096,66ba7e4126d266ff3cdf6d79,697959de24a1c569e8bf5a40,697a3e2d09a08016aab30c77,19.0,human,hnee89ousm.csv,7,7,7,7,7,7,6
2782,"
    <div class=""gen_ins""; style=""font-size: 16px; text-align: center; margin-top: 25px; margin-right: 100px; margin-left: 100px; margin-bottom: 25px;"">
        <p>You have completed the rating trials. Next, you will be directed to an optional survey.</p>
        <p>Please answer any of the questions on the next page that you are comfortable answering. After seeing the survey, you will be able to end the experiment.</p>
        <p>Click ‘Continue’ to proceed to the survey.</p>
    </div>
    ",html-button-response,28,2.1.0,934880,66ba7e4126d266ff3cdf6d79,697959de24a1c569e8bf5a40,697a3e2d09a08016aab30c77,,,hnee89ousm.csv,,,,,,,
80056,,survey,29,3.0.0,1015009,66ba7e4126d266ff3cdf6d79,697959de24a1c569e8bf5a40,697a3e2d09a08016aab30c77,,,hnee89ousm.csv,,,,,,,
1825,"
